trial_type,trial_index,time_elapsed,internal_node_id,subject,condition,age,gender,sex,weight,height,dob,marital,natlang,olang,mental,mentdrug,mentpos,soc_1,soc_2,soc_3,soc_4,soc_5,TV01,DEV01,LAP01,PHO01,TAB01,TV02,DEV02,LAP02,PHO02,TAB02,TV03,DEV03,LAP03,PHO03,TAB03,WEDSEC,WNISEC,WKNSEC,sesparent,sesstudent,sesladder,educ_l,educ_c,educ_hs,educ_ce,ngs_01,ngs_02,ngs_03,ngs_04,ngs_05,ngs_06,ngs_07,ngs_08,ngs_09,ngs_10,ngs_11,ngs_12,ngs_13,ngs_14,ngs_15,ngs_16,ngs_17,ngs_18,kirby01,kirby02,kirby03,kirby04,kirby05,kirby06,kirby07,kirby08,kirby09,kirby10,kirby11,kirby12,kirby13,kirby14,kirby15,kirby16,kirby17,kirby18,kirby19,kirby20,kirby21,s1self,chosenbody,s1selfjudge,s2selfjudge,s2self,EDEQ_1,EDEQ_2,EDEQ_3,EDEQ_4,EDEQ_5,EDEQ_6,EDEQ_7,EDEQ_8,EDEQ_9,EDEQ_10,EDEQ_11,catch1,EDEQ_12,BSQR_1,BSQR_2,BSQR_3,BSQR_4,BSQR_5,BSQR_6,BSQR_7,BSQR_8,BSQR_9,BSQR_10,BSQR_11,catch2,BSQR_12,BSQR_13,BSQR_14,BSI_1,BSI_2,BSI_3,BSI_4,BSI_5,BSI_6,BSI_7,BSI_8,catch3,BSI_9,BSI_10,BSI_11,BSI_12,BSI_13,BSI_14,BSI_15,BSI_16,BSI_17,BSI_18,debrief,rt,url,success,view_history,responses,question_order,final_value,start_value,stimulus,key_press,trial,block,freq
pavlovia,0,9,0.0-0.0,w75c0glzv3q0dp3,0,20,Female,Female,148,5.4,30/08/2000,Single,French,"English, Spanish",No,No,No,3,3,3,3,4,0:30,0:00,2:00,3:30,0:00,0:45,0:00,1:00,4:00,0:00,1:00,0:15,1:30,4:00,0:00,2:00,4:00,3:00,8,3,6,3,0,0,1,3,3,1,1,1,2,1,1,2,3,3,0,2,3,2,1,1,4,$85 in 14 days,$55 in 25 days,$85 in 35 days,$34 tonight,$35 in 10 days,$55 in 20 days,$83 tonight,$21 tonight,$48 tonight,$40 tonight,$35 in 25 days,$65 tonight,$55 in 10 days,$30 tonight,$53 tonight,$47 tonight,$70 in 20 days,$50 tonight,$70 in 35 days,$27 tonight,$30 in 35 days,0.5,stim/N000.jpg,65,65,0.516666666,3,2,1,3,3,2,0,2,1,2,2,2,3,3,4,4,4,4,3,4,2,3,5,1,1,4,3,4,0,1,1,0,2,1,0,2,0,0,0,2,0,0,2,0,0,0,0,agree,,,,,,,,,,,,,
external-html,1,173079,0.0-1.0,w75c0glzv3q0dp3,0,20,Female,Female,148,5.4,30/08/2000,Single,French,"English, Spanish",No,No,No,3,3,3,3,4,0:30,0:00,2:00,3:30,0:00,0:45,0:00,1:00,4:00,0:00,1:00,0:15,1:30,4:00,0:00,2:00,4:00,3:00,8,3,6,3,0,0,1,3,3,1,1,1,2,1,1,2,3,3,0,2,3,2,1,1,4,$85 in 14 days,$55 in 25 days,$85 in 35 days,$34 tonight,$35 in 10 days,$55 in 20 days,$83 tonight,$21 tonight,$48 tonight,$40 tonight,$35 in 25 days,$65 tonight,$55 in 10 days,$30 tonight,$53 tonight,$47 tonight,$70 in 20 days,$50 tonight,$70 in 35 days,$27 tonight,$30 in 35 days,0.5,stim/N000.jpg,65,65,0.516666666,3,2,1,3,3,2,0,2,1,2,2,2,3,3,4,4,4,4,3,4,2,3,5,1,1,4,3,4,0,1,1,0,2,1,0,2,0,0,0,2,0,0,2,0,0,0,0,agree,172962,sub/html/consent.html,,,,,,,,,,,
fullscreen,2,176595,0.0-2.0,w75c0glzv3q0dp3,0,20,Female,Female,148,5.4,30/08/2000,Single,French,"English, Spanish",No,No,No,3,3,3,3,4,0:30,0:00,2:00,3:30,0:00,0:45,0:00,1:00,4:00,0:00,1:00,0:15,1:30,4:00,0:00,2:00,4:00,3:00,8,3,6,3,0,0,1,3,3,1,1,1,2,1,1,2,3,3,0,2,3,2,1,1,4,$85 in 14 days,$55 in 25 days,$85 in 35 days,$34 tonight,$35 in 10 days,$55 in 20 days,$83 tonight,$21 tonight,$48 tonight,$40 tonight,$35 in 25 days,$65 tonight,$55 in 10 days,$30 tonight,$53 tonight,$47 tonight,$70 in 20 days,$50 tonight,$70 in 35 days,$27 tonight,$30 in 35 days,0.5,stim/N000.jpg,65,65,0.516666666,3,2,1,3,3,2,0,2,1,2,2,2,3,3,4,4,4,4,3,4,2,3,5,1,1,4,3,4,0,1,1,0,2,1,0,2,0,0,0,2,0,0,2,0,0,0,0,agree,,,TRUE,,,,,,,,,,
instructions,3,185384,0.0-3.0,w75c0glzv3q0dp3,0,20,Female,Female,148,5.4,30/08/2000,Single,French,"English, Spanish",No,No,No,3,3,3,3,4,0:30,0:00,2:00,3:30,0:00,0:45,0:00,1:00,4:00,0:00,1:00,0:15,1:30,4:00,0:00,2:00,4:00,3:00,8,3,6,3,0,0,1,3,3,1,1,1,2,1,1,2,3,3,0,2,3,2,1,1,4,$85 in 14 days,$55 in 25 days,$85 in 35 days,$34 tonight,$35 in 10 days,$55 in 20 days,$83 tonight,$21 tonight,$48 tonight,$40 tonight,$35 in 25 days,$65 tonight,$55 in 10 days,$30 tonight,$53 tonight,$47 tonight,$70 in 20 days,$50 tonight,$70 in 35 days,$27 tonight,$30 in 35 days,0.5,stim/N000.jpg,65,65,0.516666666,3,2,1,3,3,2,0,2,1,2,2,2,3,3,4,4,4,4,3,4,2,3,5,1,1,4,3,4,0,1,1,0,2,1,0,2,0,0,0,2,0,0,2,0,0,0,0,agree,8787,,,"[{""page_index"":0,""viewing_time"":3831},{""page_index"":1,""viewing_time"":4955}]",,,,,,,,,
survey-text,4,277043,0.0-4.0,w75c0glzv3q0dp3,0,20,Female,Female,148,5.4,30/08/2000,Single,French,"English, Spanish",No,No,No,3,3,3,3,4,0:30,0:00,2:00,3:30,0:00,0:45,0:00,1:00,4:00,0:00,1:00,0:15,1:30,4:00,0:00,2:00,4:00,3:00,8,3,6,3,0,0,1,3,3,1,1,1,2,1,1,2,3,3,0,2,3,2,1,1,4,$85 in 14 days,$55 in 25 days,$85 in 35 days,$34 tonight,$35 in 10 days,$55 in 20 days,$83 tonight,$21 tonight,$48 tonight,$40 tonight,$35 in 25 days,$65 tonight,$55 in 10 days,$30 tonight,$53 tonight,$47 tonight,$70 in 20 days,$50 tonight,$70 in 35 days,$27 tonight,$30 in 35 days,0.5,stim/N000.jpg,65,65,0.516666666,3,2,1,3,3,2,0,2,1,2,2,2,3,3,4,4,4,4,3,4,2,3,5,1,1,4,3,4,0,1,1,0,2,1,0,2,0,0,0,2,0,0,2,0,0,0,0,agree,91616,,,,"{""studID"":""annsophieroy@outlook.com"",""age"":""20"",""gender"":""Female"",""sex"":""Female"",""weight"":""148"",""height"":""5.4"",""dob"":""30/08/2000"",""marital"":""Single"",""natlang"":""French"",""olang"":""English, Spanish""}",,,,,,,,
survey-text,5,294227,0.0-5.0,w75c0glzv3q0dp3,0,20,Female,Female,148,5.4,30/08/2000,Single,French,"English, Spanish",No,No,No,3,3,3,3,4,0:30,0:00,2:00,3:30,0:00,0:45,0:00,1:00,4:00,0:00,1:00,0:15,1:30,4:00,0:00,2:00,4:00,3:00,8,3,6,3,0,0,1,3,3,1,1,1,2,1,1,2,3,3,0,2,3,2,1,1,4,$85 in 14 days,$55 in 25 days,$85 in 35 days,$34 tonight,$35 in 10 days,$55 in 20 days,$83 tonight,$21 tonight,$48 tonight,$40 tonight,$35 in 25 days,$65 tonight,$55 in 10 days,$30 tonight,$53 tonight,$47 tonight,$70 in 20 days,$50 tonight,$70 in 35 days,$27 tonight,$30 in 35 days,0.5,stim/N000.jpg,65,65,0.516666666,3,2,1,3,3,2,0,2,1,2,2,2,3,3,4,4,4,4,3,4,2,3,5,1,1,4,3,4,0,1,1,0,2,1,0,2,0,0,0,2,0,0,2,0,0,0,0,agree,17168,,,,"{""mental"":""No"",""mentdrug"":""No"",""mentpos"":""No""}",,,,,,,,
survey-likert,6,340570,0.0-6.0,w75c0glzv3q0dp3,0,20,Female,Female,148,5.4,30/08/2000,Single,French,"English, Spanish",No,No,No,3,3,3,3,4,0:30,0:00,2:00,3:30,0:00,0:45,0:00,1:00,4:00,0:00,1:00,0:15,1:30,4:00,0:00,2:00,4:00,3:00,8,3,6,3,0,0,1,3,3,1,1,1,2,1,1,2,3,3,0,2,3,2,1,1,4,$85 in 14 days,$55 in 25 days,$85 in 35 days,$34 tonight,$35 in 10 days,$55 in 20 days,$83 tonight,$21 tonight,$48 tonight,$40 tonight,$35 in 25 days,$65 tonight,$55 in 10 days,$30 tonight,$53 tonight,$47 tonight,$70 in 20 days,$50 tonight,$70 in 35 days,$27 tonight,$30 in 35 days,0.5,stim/N000.jpg,65,65,0.516666666,3,2,1,3,3,2,0,2,1,2,2,2,3,3,4,4,4,4,3,4,2,3,5,1,1,4,3,4,0,1,1,0,2,1,0,2,0,0,0,2,0,0,2,0,0,0,0,agree,46336,,,,"{""soc_1"":3,""soc_2"":3,""soc_3"":3,""soc_4"":3,""soc_5"":4}","[0,1,2,3,4]",,,,,,,
survey-text,7,497153,0.0-7.0,w75c0glzv3q0dp3,0,20,Female,Female,148,5.4,30/08/2000,Single,French,"English, Spanish",No,No,No,3,3,3,3,4,0:30,0:00,2:00,3:30,0:00,0:45,0:00,1:00,4:00,0:00,1:00,0:15,1:30,4:00,0:00,2:00,4:00,3:00,8,3,6,3,0,0,1,3,3,1,1,1,2,1,1,2,3,3,0,2,3,2,1,1,4,$85 in 14 days,$55 in 25 days,$85 in 35 days,$34 tonight,$35 in 10 days,$55 in 20 days,$83 tonight,$21 tonight,$48 tonight,$40 tonight,$35 in 25 days,$65 tonight,$55 in 10 days,$30 tonight,$53 tonight,$47 tonight,$70 in 20 days,$50 tonight,$70 in 35 days,$27 tonight,$30 in 35 days,0.5,stim/N000.jpg,65,65,0.516666666,3,2,1,3,3,2,0,2,1,2,2,2,3,3,4,4,4,4,3,4,2,3,5,1,1,4,3,4,0,1,1,0,2,1,0,2,0,0,0,2,0,0,2,0,0,0,0,agree,156564,,,,"{""tv_01"":""00:30"",""dev_01"":""00:00"",""lap_01"":""2:00"",""pho_01"":""3:30"",""tab_01"":""00:00""}",,,,,,,,
survey-text,8,527142,0.0-8.0,w75c0glzv3q0dp3,0,20,Female,Female,148,5.4,30/08/2000,Single,French,"English, Spanish",No,No,No,3,3,3,3,4,0:30,0:00,2:00,3:30,0:00,0:45,0:00,1:00,4:00,0:00,1:00,0:15,1:30,4:00,0:00,2:00,4:00,3:00,8,3,6,3,0,0,1,3,3,1,1,1,2,1,1,2,3,3,0,2,3,2,1,1,4,$85 in 14 days,$55 in 25 days,$85 in 35 days,$34 tonight,$35 in 10 days,$55 in 20 days,$83 tonight,$21 tonight,$48 tonight,$40 tonight,$35 in 25 days,$65 tonight,$55 in 10 days,$30 tonight,$53 tonight,$47 tonight,$70 in 20 days,$50 tonight,$70 in 35 days,$27 tonight,$30 in 35 days,0.5,stim/N000.jpg,65,65,0.516666666,3,2,1,3,3,2,0,2,1,2,2,2,3,3,4,4,4,4,3,4,2,3,5,1,1,4,3,4,0,1,1,0,2,1,0,2,0,0,0,2,0,0,2,0,0,0,0,agree,29973,,,,"{""tv_02"":""00:45"",""dev_02"":""00:00"",""lap_02"":""1:00"",""pho_02"":""4:00"",""tab_02"":""00:00""}",,,,,,,,
survey-text,9,566463,0.0-9.0,w75c0glzv3q0dp3,0,20,Female,Female,148,5.4,30/08/2000,Single,French,"English, Spanish",No,No,No,3,3,3,3,4,0:30,0:00,2:00,3:30,0:00,0:45,0:00,1:00,4:00,0:00,1:00,0:15,1:30,4:00,0:00,2:00,4:00,3:00,8,3,6,3,0,0,1,3,3,1,1,1,2,1,1,2,3,3,0,2,3,2,1,1,4,$85 in 14 days,$55 in 25 days,$85 in 35 days,$34 tonight,$35 in 10 days,$55 in 20 days,$83 tonight,$21 tonight,$48 tonight,$40 tonight,$35 in 25 days,$65 tonight,$55 in 10 days,$30 tonight,$53 tonight,$47 tonight,$70 in 20 days,$50 tonight,$70 in 35 days,$27 tonight,$30 in 35 days,0.5,stim/N000.jpg,65,65,0.516666666,3,2,1,3,3,2,0,2,1,2,2,2,3,3,4,4,4,4,3,4,2,3,5,1,1,4,3,4,0,1,1,0,2,1,0,2,0,0,0,2,0,0,2,0,0,0,0,agree,39306,,,,"{""tv_03"":""1:00"",""dev_03"":""00:15"",""lap_03"":""1:30"",""pho_03"":""4:00"",""tab_03"":""00:00""}",,,,,,,,
survey-text,10,675969,0.0-10.0,w75c0glzv3q0dp3,0,20,Female,Female,148,5.4,30/08/2000,Single,French,"English, Spanish",No,No,No,3,3,3,3,4,0:30,0:00,2:00,3:30,0:00,0:45,0:00,1:00,4:00,0:00,1:00,0:15,1:30,4:00,0:00,2:00,4:00,3:00,8,3,6,3,0,0,1,3,3,1,1,1,2,1,1,2,3,3,0,2,3,2,1,1,4,$85 in 14 days,$55 in 25 days,$85 in 35 days,$34 tonight,$35 in 10 days,$55 in 20 days,$83 tonight,$21 tonight,$48 tonight,$40 tonight,$35 in 25 days,$65 tonight,$55 in 10 days,$30 tonight,$53 tonight,$47 tonight,$70 in 20 days,$50 tonight,$70 in 35 days,$27 tonight,$30 in 35 days,0.5,stim/N000.jpg,65,65,0.516666666,3,2,1,3,3,2,0,2,1,2,2,2,3,3,4,4,4,4,3,4,2,3,5,1,1,4,3,4,0,1,1,0,2,1,0,2,0,0,0,2,0,0,2,0,0,0,0,agree,109489,,,,"{""Wedsec"":""2:00"",""Wnisec"":""4:00"",""Wknsec"":""3:00""}",,,,,,,,
survey-likert,11,746730,0.0-11.0,w75c0glzv3q0dp3,0,20,Female,Female,148,5.4,30/08/2000,Single,French,"English, Spanish",No,No,No,3,3,3,3,4,0:30,0:00,2:00,3:30,0:00,0:45,0:00,1:00,4:00,0:00,1:00,0:15,1:30,4:00,0:00,2:00,4:00,3:00,8,3,6,3,0,0,1,3,3,1,1,1,2,1,1,2,3,3,0,2,3,2,1,1,4,$85 in 14 days,$55 in 25 days,$85 in 35 days,$34 tonight,$35 in 10 days,$55 in 20 days,$83 tonight,$21 tonight,$48 tonight,$40 tonight,$35 in 25 days,$65 tonight,$55 in 10 days,$30 tonight,$53 tonight,$47 tonight,$70 in 20 days,$50 tonight,$70 in 35 days,$27 tonight,$30 in 35 days,0.5,stim/N000.jpg,65,65,0.516666666,3,2,1,3,3,2,0,2,1,2,2,2,3,3,4,4,4,4,3,4,2,3,5,1,1,4,3,4,0,1,1,0,2,1,0,2,0,0,0,2,0,0,2,0,0,0,0,agree,70755,,,,"{""sesparent"":8,""sesstudent"":3,""sesladder"":6}","[0,1,2]",,,,,,,
survey-likert,12,774458,0.0-12.0,w75c0glzv3q0dp3,0,20,Female,Female,148,5.4,30/08/2000,Single,French,"English, Spanish",No,No,No,3,3,3,3,4,0:30,0:00,2:00,3:30,0:00,0:45,0:00,1:00,4:00,0:00,1:00,0:15,1:30,4:00,0:00,2:00,4:00,3:00,8,3,6,3,0,0,1,3,3,1,1,1,2,1,1,2,3,3,0,2,3,2,1,1,4,$85 in 14 days,$55 in 25 days,$85 in 35 days,$34 tonight,$35 in 10 days,$55 in 20 days,$83 tonight,$21 tonight,$48 tonight,$40 tonight,$35 in 25 days,$65 tonight,$55 in 10 days,$30 tonight,$53 tonight,$47 tonight,$70 in 20 days,$50 tonight,$70 in 35 days,$27 tonight,$30 in 35 days,0.5,stim/N000.jpg,65,65,0.516666666,3,2,1,3,3,2,0,2,1,2,2,2,3,3,4,4,4,4,3,4,2,3,5,1,1,4,3,4,0,1,1,0,2,1,0,2,0,0,0,2,0,0,2,0,0,0,0,agree,27720,,,,"{""educ_l"":3,""educ_c"":0,""educ_hs"":0,""educ_ce"":1}","[0,1,2,3]",,,,,,,
survey-likert,13,914392,0.0-13.0,w75c0glzv3q0dp3,0,20,Female,Female,148,5.4,30/08/2000,Single,French,"English, Spanish",No,No,No,3,3,3,3,4,0:30,0:00,2:00,3:30,0:00,0:45,0:00,1:00,4:00,0:00,1:00,0:15,1:30,4:00,0:00,2:00,4:00,3:00,8,3,6,3,0,0,1,3,3,1,1,1,2,1,1,2,3,3,0,2,3,2,1,1,4,$85 in 14 days,$55 in 25 days,$85 in 35 days,$34 tonight,$35 in 10 days,$55 in 20 days,$83 tonight,$21 tonight,$48 tonight,$40 tonight,$35 in 25 days,$65 tonight,$55 in 10 days,$30 tonight,$53 tonight,$47 tonight,$70 in 20 days,$50 tonight,$70 in 35 days,$27 tonight,$30 in 35 days,0.5,stim/N000.jpg,65,65,0.516666666,3,2,1,3,3,2,0,2,1,2,2,2,3,3,4,4,4,4,3,4,2,3,5,1,1,4,3,4,0,1,1,0,2,1,0,2,0,0,0,2,0,0,2,0,0,0,0,agree,139909,,,,"{""ngs_01"":3,""ngs_02"":3,""ngs_03"":1,""ngs_04"":1,""ngs_05"":1,""ngs_06"":2,""ngs_07"":1,""ngs_08"":1,""ngs_09"":2,""ngs_10"":3,""ngs_11"":3,""ngs_12"":0,""ngs_13"":2,""ngs_14"":3,""ngs_15"":2,""ngs_16"":1,""ngs_17"":1,""ngs_18"":4}","[0,1,2,3,4,5,6,7,8,9,10,11,12,13,14,15,16,17]",,,,,,,
survey-multi-choice,14,1032963,0.0-14.0,w75c0glzv3q0dp3,0,20,Female,Female,148,5.4,30/08/2000,Single,French,"English, Spanish",No,No,No,3,3,3,3,4,0:30,0:00,2:00,3:30,0:00,0:45,0:00,1:00,4:00,0:00,1:00,0:15,1:30,4:00,0:00,2:00,4:00,3:00,8,3,6,3,0,0,1,3,3,1,1,1,2,1,1,2,3,3,0,2,3,2,1,1,4,$85 in 14 days,$55 in 25 days,$85 in 35 days,$34 tonight,$35 in 10 days,$55 in 20 days,$83 tonight,$21 tonight,$48 tonight,$40 tonight,$35 in 25 days,$65 tonight,$55 in 10 days,$30 tonight,$53 tonight,$47 tonight,$70 in 20 days,$50 tonight,$70 in 35 days,$27 tonight,$30 in 35 days,0.5,stim/N000.jpg,65,65,0.516666666,3,2,1,3,3,2,0,2,1,2,2,2,3,3,4,4,4,4,3,4,2,3,5,1,1,4,3,4,0,1,1,0,2,1,0,2,0,0,0,2,0,0,2,0,0,0,0,agree,118560,,,,"{""kirby01"":""$85 in 14 days"",""kirby02"":""$55 in 25 days"",""kirby03"":""$85 in 35 days"",""kirby04"":""$34 tonight"",""kirby05"":""$35 in 10 days"",""kirby06"":""$55 in 20 days"",""kirby07"":""$83 tonight"",""kirby08"":""$21 tonight"",""kirby09"":""$48 tonight"",""kirby10"":""$40 tonight"",""kirby11"":""$35 in 25 days"",""kirby12"":""$65 tonight"",""kirby13"":""$55 in 10 days"",""kirby14"":""$30 tonight"",""kirby15"":""$53 tonight"",""kirby16"":""$47 tonight"",""kirby17"":""$70 in 20 days"",""kirby18"":""$50 tonight"",""kirby19"":""$70 in 35 days"",""kirby20"":""$27 tonight"",""kirby21"":""$30 in 35 days""}","[0,1,2,3,4,5,6,7,8,9,10,11,12,13,14,15,16,17,18,19,20]",,,,,,,
reconstruction,15,1043824,0.0-15.0,w75c0glzv3q0dp3,0,20,Female,Female,148,5.4,30/08/2000,Single,French,"English, Spanish",No,No,No,3,3,3,3,4,0:30,0:00,2:00,3:30,0:00,0:45,0:00,1:00,4:00,0:00,1:00,0:15,1:30,4:00,0:00,2:00,4:00,3:00,8,3,6,3,0,0,1,3,3,1,1,1,2,1,1,2,3,3,0,2,3,2,1,1,4,$85 in 14 days,$55 in 25 days,$85 in 35 days,$34 tonight,$35 in 10 days,$55 in 20 days,$83 tonight,$21 tonight,$48 tonight,$40 tonight,$35 in 25 days,$65 tonight,$55 in 10 days,$30 tonight,$53 tonight,$47 tonight,$70 in 20 days,$50 tonight,$70 in 35 days,$27 tonight,$30 in 35 days,0.5,stim/N000.jpg,65,65,0.516666666,3,2,1,3,3,2,0,2,1,2,2,2,3,3,4,4,4,4,3,4,2,3,5,1,1,4,3,4,0,1,1,0,2,1,0,2,0,0,0,2,0,0,2,0,0,0,0,agree,10856,,,,,,0.5,0.5,,,,,
image-keyboard-response,16,1051635,0.0-16.0,w75c0glzv3q0dp3,0,20,Female,Female,148,5.4,30/08/2000,Single,French,"English, Spanish",No,No,No,3,3,3,3,4,0:30,0:00,2:00,3:30,0:00,0:45,0:00,1:00,4:00,0:00,1:00,0:15,1:30,4:00,0:00,2:00,4:00,3:00,8,3,6,3,0,0,1,3,3,1,1,1,2,1,1,2,3,3,0,2,3,2,1,1,4,$85 in 14 days,$55 in 25 days,$85 in 35 days,$34 tonight,$35 in 10 days,$55 in 20 days,$83 tonight,$21 tonight,$48 tonight,$40 tonight,$35 in 25 days,$65 tonight,$55 in 10 days,$30 tonight,$53 tonight,$47 tonight,$70 in 20 days,$50 tonight,$70 in 35 days,$27 tonight,$30 in 35 days,0.5,stim/N000.jpg,65,65,0.516666666,3,2,1,3,3,2,0,2,1,2,2,2,3,3,4,4,4,4,3,4,2,3,5,1,1,4,3,4,0,1,1,0,2,1,0,2,0,0,0,2,0,0,2,0,0,0,0,agree,7807,,,,,,,,stim/N000.jpg,65,,,
instructions,17,1102851,0.0-17.0,w75c0glzv3q0dp3,0,20,Female,Female,148,5.4,30/08/2000,Single,French,"English, Spanish",No,No,No,3,3,3,3,4,0:30,0:00,2:00,3:30,0:00,0:45,0:00,1:00,4:00,0:00,1:00,0:15,1:30,4:00,0:00,2:00,4:00,3:00,8,3,6,3,0,0,1,3,3,1,1,1,2,1,1,2,3,3,0,2,3,2,1,1,4,$85 in 14 days,$55 in 25 days,$85 in 35 days,$34 tonight,$35 in 10 days,$55 in 20 days,$83 tonight,$21 tonight,$48 tonight,$40 tonight,$35 in 25 days,$65 tonight,$55 in 10 days,$30 tonight,$53 tonight,$47 tonight,$70 in 20 days,$50 tonight,$70 in 35 days,$27 tonight,$30 in 35 days,0.5,stim/N000.jpg,65,65,0.516666666,3,2,1,3,3,2,0,2,1,2,2,2,3,3,4,4,4,4,3,4,2,3,5,1,1,4,3,4,0,1,1,0,2,1,0,2,0,0,0,2,0,0,2,0,0,0,0,agree,51214,,,"[{""page_index"":0,""viewing_time"":6160},{""page_index"":1,""viewing_time"":5139},{""page_index"":2,""viewing_time"":7851},{""page_index"":3,""viewing_time"":6661},{""page_index"":4,""viewing_time"":6041},{""page_index"":5,""viewing_time"":15088},{""page_index"":6,""viewing_time"":4274}]",,,,,,,,,
image-keyboard-response,18,1103353,0.0-18.0-0.0,w75c0glzv3q0dp3,0,20,Female,Female,148,5.4,30/08/2000,Single,French,"English, Spanish",No,No,No,3,3,3,3,4,0:30,0:00,2:00,3:30,0:00,0:45,0:00,1:00,4:00,0:00,1:00,0:15,1:30,4:00,0:00,2:00,4:00,3:00,8,3,6,3,0,0,1,3,3,1,1,1,2,1,1,2,3,3,0,2,3,2,1,1,4,$85 in 14 days,$55 in 25 days,$85 in 35 days,$34 tonight,$35 in 10 days,$55 in 20 days,$83 tonight,$21 tonight,$48 tonight,$40 tonight,$35 in 25 days,$65 tonight,$55 in 10 days,$30 tonight,$53 tonight,$47 tonight,$70 in 20 days,$50 tonight,$70 in 35 days,$27 tonight,$30 in 35 days,0.5,stim/N000.jpg,65,65,0.516666666,3,2,1,3,3,2,0,2,1,2,2,2,3,3,4,4,4,4,3,4,2,3,5,1,1,4,3,4,0,1,1,0,2,1,0,2,0,0,0,2,0,0,2,0,0,0,0,agree,null,,,,,,,,stim/T160.jpg,null,,,
html-keyboard-response,19,1106773,0.0-18.0-1.0,w75c0glzv3q0dp3,0,20,Female,Female,148,5.4,30/08/2000,Single,French,"English, Spanish",No,No,No,3,3,3,3,4,0:30,0:00,2:00,3:30,0:00,0:45,0:00,1:00,4:00,0:00,1:00,0:15,1:30,4:00,0:00,2:00,4:00,3:00,8,3,6,3,0,0,1,3,3,1,1,1,2,1,1,2,3,3,0,2,3,2,1,1,4,$85 in 14 days,$55 in 25 days,$85 in 35 days,$34 tonight,$35 in 10 days,$55 in 20 days,$83 tonight,$21 tonight,$48 tonight,$40 tonight,$35 in 25 days,$65 tonight,$55 in 10 days,$30 tonight,$53 tonight,$47 tonight,$70 in 20 days,$50 tonight,$70 in 35 days,$27 tonight,$30 in 35 days,0.5,stim/N000.jpg,65,65,0.516666666,3,2,1,3,3,2,0,2,1,2,2,2,3,3,4,4,4,4,3,4,2,3,5,1,1,4,3,4,0,1,1,0,2,1,0,2,0,0,0,2,0,0,2,0,0,0,0,agree,3417,,,,,,,,"<div style=""font-size:60px;"">?</div>",65,1,Practice,0.5
image-keyboard-response,20,1107776,0.0-18.0-0.1,w75c0glzv3q0dp3,0,20,Female,Female,148,5.4,30/08/2000,Single,French,"English, Spanish",No,No,No,3,3,3,3,4,0:30,0:00,2:00,3:30,0:00,0:45,0:00,1:00,4:00,0:00,1:00,0:15,1:30,4:00,0:00,2:00,4:00,3:00,8,3,6,3,0,0,1,3,3,1,1,1,2,1,1,2,3,3,0,2,3,2,1,1,4,$85 in 14 days,$55 in 25 days,$85 in 35 days,$34 tonight,$35 in 10 days,$55 in 20 days,$83 tonight,$21 tonight,$48 tonight,$40 tonight,$35 in 25 days,$65 tonight,$55 in 10 days,$30 tonight,$53 tonight,$47 tonight,$70 in 20 days,$50 tonight,$70 in 35 days,$27 tonight,$30 in 35 days,0.5,stim/N000.jpg,65,65,0.516666666,3,2,1,3,3,2,0,2,1,2,2,2,3,3,4,4,4,4,3,4,2,3,5,1,1,4,3,4,0,1,1,0,2,1,0,2,0,0,0,2,0,0,2,0,0,0,0,agree,null,,,,,,,,stim/H140.jpg,null,,,
html-keyboard-response,21,1109282,0.0-18.0-1.1,w75c0glzv3q0dp3,0,20,Female,Female,148,5.4,30/08/2000,Single,French,"English, Spanish",No,No,No,3,3,3,3,4,0:30,0:00,2:00,3:30,0:00,0:45,0:00,1:00,4:00,0:00,1:00,0:15,1:30,4:00,0:00,2:00,4:00,3:00,8,3,6,3,0,0,1,3,3,1,1,1,2,1,1,2,3,3,0,2,3,2,1,1,4,$85 in 14 days,$55 in 25 days,$85 in 35 days,$34 tonight,$35 in 10 days,$55 in 20 days,$83 tonight,$21 tonight,$48 tonight,$40 tonight,$35 in 25 days,$65 tonight,$55 in 10 days,$30 tonight,$53 tonight,$47 tonight,$70 in 20 days,$50 tonight,$70 in 35 days,$27 tonight,$30 in 35 days,0.5,stim/N000.jpg,65,65,0.516666666,3,2,1,3,3,2,0,2,1,2,2,2,3,3,4,4,4,4,3,4,2,3,5,1,1,4,3,4,0,1,1,0,2,1,0,2,0,0,0,2,0,0,2,0,0,0,0,agree,1505,,,,,,,,"<div style=""font-size:60px;"">?</div>",76,2,Practice,0.5
image-keyboard-response,22,1110286,0.0-18.0-0.2,w75c0glzv3q0dp3,0,20,Female,Female,148,5.4,30/08/2000,Single,French,"English, Spanish",No,No,No,3,3,3,3,4,0:30,0:00,2:00,3:30,0:00,0:45,0:00,1:00,4:00,0:00,1:00,0:15,1:30,4:00,0:00,2:00,4:00,3:00,8,3,6,3,0,0,1,3,3,1,1,1,2,1,1,2,3,3,0,2,3,2,1,1,4,$85 in 14 days,$55 in 25 days,$85 in 35 days,$34 tonight,$35 in 10 days,$55 in 20 days,$83 tonight,$21 tonight,$48 tonight,$40 tonight,$35 in 25 days,$65 tonight,$55 in 10 days,$30 tonight,$53 tonight,$47 tonight,$70 in 20 days,$50 tonight,$70 in 35 days,$27 tonight,$30 in 35 days,0.5,stim/N000.jpg,65,65,0.516666666,3,2,1,3,3,2,0,2,1,2,2,2,3,3,4,4,4,4,3,4,2,3,5,1,1,4,3,4,0,1,1,0,2,1,0,2,0,0,0,2,0,0,2,0,0,0,0,agree,null,,,,,,,,stim/T230.jpg,null,,,
html-keyboard-response,23,1111003,0.0-18.0-1.2,w75c0glzv3q0dp3,0,20,Female,Female,148,5.4,30/08/2000,Single,French,"English, Spanish",No,No,No,3,3,3,3,4,0:30,0:00,2:00,3:30,0:00,0:45,0:00,1:00,4:00,0:00,1:00,0:15,1:30,4:00,0:00,2:00,4:00,3:00,8,3,6,3,0,0,1,3,3,1,1,1,2,1,1,2,3,3,0,2,3,2,1,1,4,$85 in 14 days,$55 in 25 days,$85 in 35 days,$34 tonight,$35 in 10 days,$55 in 20 days,$83 tonight,$21 tonight,$48 tonight,$40 tonight,$35 in 25 days,$65 tonight,$55 in 10 days,$30 tonight,$53 tonight,$47 tonight,$70 in 20 days,$50 tonight,$70 in 35 days,$27 tonight,$30 in 35 days,0.5,stim/N000.jpg,65,65,0.516666666,3,2,1,3,3,2,0,2,1,2,2,2,3,3,4,4,4,4,3,4,2,3,5,1,1,4,3,4,0,1,1,0,2,1,0,2,0,0,0,2,0,0,2,0,0,0,0,agree,717,,,,,,,,"<div style=""font-size:60px;"">?</div>",65,3,Practice,0.5
image-keyboard-response,24,1112007,0.0-18.0-0.3,w75c0glzv3q0dp3,0,20,Female,Female,148,5.4,30/08/2000,Single,French,"English, Spanish",No,No,No,3,3,3,3,4,0:30,0:00,2:00,3:30,0:00,0:45,0:00,1:00,4:00,0:00,1:00,0:15,1:30,4:00,0:00,2:00,4:00,3:00,8,3,6,3,0,0,1,3,3,1,1,1,2,1,1,2,3,3,0,2,3,2,1,1,4,$85 in 14 days,$55 in 25 days,$85 in 35 days,$34 tonight,$35 in 10 days,$55 in 20 days,$83 tonight,$21 tonight,$48 tonight,$40 tonight,$35 in 25 days,$65 tonight,$55 in 10 days,$30 tonight,$53 tonight,$47 tonight,$70 in 20 days,$50 tonight,$70 in 35 days,$27 tonight,$30 in 35 days,0.5,stim/N000.jpg,65,65,0.516666666,3,2,1,3,3,2,0,2,1,2,2,2,3,3,4,4,4,4,3,4,2,3,5,1,1,4,3,4,0,1,1,0,2,1,0,2,0,0,0,2,0,0,2,0,0,0,0,agree,null,,,,,,,,stim/H070.jpg,null,,,
html-keyboard-response,25,1112517,0.0-18.0-1.3,w75c0glzv3q0dp3,0,20,Female,Female,148,5.4,30/08/2000,Single,French,"English, Spanish",No,No,No,3,3,3,3,4,0:30,0:00,2:00,3:30,0:00,0:45,0:00,1:00,4:00,0:00,1:00,0:15,1:30,4:00,0:00,2:00,4:00,3:00,8,3,6,3,0,0,1,3,3,1,1,1,2,1,1,2,3,3,0,2,3,2,1,1,4,$85 in 14 days,$55 in 25 days,$85 in 35 days,$34 tonight,$35 in 10 days,$55 in 20 days,$83 tonight,$21 tonight,$48 tonight,$40 tonight,$35 in 25 days,$65 tonight,$55 in 10 days,$30 tonight,$53 tonight,$47 tonight,$70 in 20 days,$50 tonight,$70 in 35 days,$27 tonight,$30 in 35 days,0.5,stim/N000.jpg,65,65,0.516666666,3,2,1,3,3,2,0,2,1,2,2,2,3,3,4,4,4,4,3,4,2,3,5,1,1,4,3,4,0,1,1,0,2,1,0,2,0,0,0,2,0,0,2,0,0,0,0,agree,510,,,,,,,,"<div style=""font-size:60px;"">?</div>",76,4,Practice,0.5
image-keyboard-response,26,1113521,0.0-18.0-0.4,w75c0glzv3q0dp3,0,20,Female,Female,148,5.4,30/08/2000,Single,French,"English, Spanish",No,No,No,3,3,3,3,4,0:30,0:00,2:00,3:30,0:00,0:45,0:00,1:00,4:00,0:00,1:00,0:15,1:30,4:00,0:00,2:00,4:00,3:00,8,3,6,3,0,0,1,3,3,1,1,1,2,1,1,2,3,3,0,2,3,2,1,1,4,$85 in 14 days,$55 in 25 days,$85 in 35 days,$34 tonight,$35 in 10 days,$55 in 20 days,$83 tonight,$21 tonight,$48 tonight,$40 tonight,$35 in 25 days,$65 tonight,$55 in 10 days,$30 tonight,$53 tonight,$47 tonight,$70 in 20 days,$50 tonight,$70 in 35 days,$27 tonight,$30 in 35 days,0.5,stim/N000.jpg,65,65,0.516666666,3,2,1,3,3,2,0,2,1,2,2,2,3,3,4,4,4,4,3,4,2,3,5,1,1,4,3,4,0,1,1,0,2,1,0,2,0,0,0,2,0,0,2,0,0,0,0,agree,null,,,,,,,,stim/H110.jpg,null,,,
html-keyboard-response,27,1114280,0.0-18.0-1.4,w75c0glzv3q0dp3,0,20,Female,Female,148,5.4,30/08/2000,Single,French,"English, Spanish",No,No,No,3,3,3,3,4,0:30,0:00,2:00,3:30,0:00,0:45,0:00,1:00,4:00,0:00,1:00,0:15,1:30,4:00,0:00,2:00,4:00,3:00,8,3,6,3,0,0,1,3,3,1,1,1,2,1,1,2,3,3,0,2,3,2,1,1,4,$85 in 14 days,$55 in 25 days,$85 in 35 days,$34 tonight,$35 in 10 days,$55 in 20 days,$83 tonight,$21 tonight,$48 tonight,$40 tonight,$35 in 25 days,$65 tonight,$55 in 10 days,$30 tonight,$53 tonight,$47 tonight,$70 in 20 days,$50 tonight,$70 in 35 days,$27 tonight,$30 in 35 days,0.5,stim/N000.jpg,65,65,0.516666666,3,2,1,3,3,2,0,2,1,2,2,2,3,3,4,4,4,4,3,4,2,3,5,1,1,4,3,4,0,1,1,0,2,1,0,2,0,0,0,2,0,0,2,0,0,0,0,agree,759,,,,,,,,"<div style=""font-size:60px;"">?</div>",76,5,Practice,0.5
image-keyboard-response,28,1115283,0.0-18.0-0.5,w75c0glzv3q0dp3,0,20,Female,Female,148,5.4,30/08/2000,Single,French,"English, Spanish",No,No,No,3,3,3,3,4,0:30,0:00,2:00,3:30,0:00,0:45,0:00,1:00,4:00,0:00,1:00,0:15,1:30,4:00,0:00,2:00,4:00,3:00,8,3,6,3,0,0,1,3,3,1,1,1,2,1,1,2,3,3,0,2,3,2,1,1,4,$85 in 14 days,$55 in 25 days,$85 in 35 days,$34 tonight,$35 in 10 days,$55 in 20 days,$83 tonight,$21 tonight,$48 tonight,$40 tonight,$35 in 25 days,$65 tonight,$55 in 10 days,$30 tonight,$53 tonight,$47 tonight,$70 in 20 days,$50 tonight,$70 in 35 days,$27 tonight,$30 in 35 days,0.5,stim/N000.jpg,65,65,0.516666666,3,2,1,3,3,2,0,2,1,2,2,2,3,3,4,4,4,4,3,4,2,3,5,1,1,4,3,4,0,1,1,0,2,1,0,2,0,0,0,2,0,0,2,0,0,0,0,agree,null,,,,,,,,stim/T050.jpg,null,,,
html-keyboard-response,29,1115749,0.0-18.0-1.5,w75c0glzv3q0dp3,0,20,Female,Female,148,5.4,30/08/2000,Single,French,"English, Spanish",No,No,No,3,3,3,3,4,0:30,0:00,2:00,3:30,0:00,0:45,0:00,1:00,4:00,0:00,1:00,0:15,1:30,4:00,0:00,2:00,4:00,3:00,8,3,6,3,0,0,1,3,3,1,1,1,2,1,1,2,3,3,0,2,3,2,1,1,4,$85 in 14 days,$55 in 25 days,$85 in 35 days,$34 tonight,$35 in 10 days,$55 in 20 days,$83 tonight,$21 tonight,$48 tonight,$40 tonight,$35 in 25 days,$65 tonight,$55 in 10 days,$30 tonight,$53 tonight,$47 tonight,$70 in 20 days,$50 tonight,$70 in 35 days,$27 tonight,$30 in 35 days,0.5,stim/N000.jpg,65,65,0.516666666,3,2,1,3,3,2,0,2,1,2,2,2,3,3,4,4,4,4,3,4,2,3,5,1,1,4,3,4,0,1,1,0,2,1,0,2,0,0,0,2,0,0,2,0,0,0,0,agree,465,,,,,,,,"<div style=""font-size:60px;"">?</div>",65,6,Practice,0.5
image-keyboard-response,30,1116753,0.0-18.0-0.6,w75c0glzv3q0dp3,0,20,Female,Female,148,5.4,30/08/2000,Single,French,"English, Spanish",No,No,No,3,3,3,3,4,0:30,0:00,2:00,3:30,0:00,0:45,0:00,1:00,4:00,0:00,1:00,0:15,1:30,4:00,0:00,2:00,4:00,3:00,8,3,6,3,0,0,1,3,3,1,1,1,2,1,1,2,3,3,0,2,3,2,1,1,4,$85 in 14 days,$55 in 25 days,$85 in 35 days,$34 tonight,$35 in 10 days,$55 in 20 days,$83 tonight,$21 tonight,$48 tonight,$40 tonight,$35 in 25 days,$65 tonight,$55 in 10 days,$30 tonight,$53 tonight,$47 tonight,$70 in 20 days,$50 tonight,$70 in 35 days,$27 tonight,$30 in 35 days,0.5,stim/N000.jpg,65,65,0.516666666,3,2,1,3,3,2,0,2,1,2,2,2,3,3,4,4,4,4,3,4,2,3,5,1,1,4,3,4,0,1,1,0,2,1,0,2,0,0,0,2,0,0,2,0,0,0,0,agree,null,,,,,,,,stim/H100.jpg,null,,,
html-keyboard-response,31,1117540,0.0-18.0-1.6,w75c0glzv3q0dp3,0,20,Female,Female,148,5.4,30/08/2000,Single,French,"English, Spanish",No,No,No,3,3,3,3,4,0:30,0:00,2:00,3:30,0:00,0:45,0:00,1:00,4:00,0:00,1:00,0:15,1:30,4:00,0:00,2:00,4:00,3:00,8,3,6,3,0,0,1,3,3,1,1,1,2,1,1,2,3,3,0,2,3,2,1,1,4,$85 in 14 days,$55 in 25 days,$85 in 35 days,$34 tonight,$35 in 10 days,$55 in 20 days,$83 tonight,$21 tonight,$48 tonight,$40 tonight,$35 in 25 days,$65 tonight,$55 in 10 days,$30 tonight,$53 tonight,$47 tonight,$70 in 20 days,$50 tonight,$70 in 35 days,$27 tonight,$30 in 35 days,0.5,stim/N000.jpg,65,65,0.516666666,3,2,1,3,3,2,0,2,1,2,2,2,3,3,4,4,4,4,3,4,2,3,5,1,1,4,3,4,0,1,1,0,2,1,0,2,0,0,0,2,0,0,2,0,0,0,0,agree,786,,,,,,,,"<div style=""font-size:60px;"">?</div>",76,7,Practice,0.5
image-keyboard-response,32,1118543,0.0-18.0-0.7,w75c0glzv3q0dp3,0,20,Female,Female,148,5.4,30/08/2000,Single,French,"English, Spanish",No,No,No,3,3,3,3,4,0:30,0:00,2:00,3:30,0:00,0:45,0:00,1:00,4:00,0:00,1:00,0:15,1:30,4:00,0:00,2:00,4:00,3:00,8,3,6,3,0,0,1,3,3,1,1,1,2,1,1,2,3,3,0,2,3,2,1,1,4,$85 in 14 days,$55 in 25 days,$85 in 35 days,$34 tonight,$35 in 10 days,$55 in 20 days,$83 tonight,$21 tonight,$48 tonight,$40 tonight,$35 in 25 days,$65 tonight,$55 in 10 days,$30 tonight,$53 tonight,$47 tonight,$70 in 20 days,$50 tonight,$70 in 35 days,$27 tonight,$30 in 35 days,0.5,stim/N000.jpg,65,65,0.516666666,3,2,1,3,3,2,0,2,1,2,2,2,3,3,4,4,4,4,3,4,2,3,5,1,1,4,3,4,0,1,1,0,2,1,0,2,0,0,0,2,0,0,2,0,0,0,0,agree,null,,,,,,,,stim/T230.jpg,null,,,
html-keyboard-response,33,1119145,0.0-18.0-1.7,w75c0glzv3q0dp3,0,20,Female,Female,148,5.4,30/08/2000,Single,French,"English, Spanish",No,No,No,3,3,3,3,4,0:30,0:00,2:00,3:30,0:00,0:45,0:00,1:00,4:00,0:00,1:00,0:15,1:30,4:00,0:00,2:00,4:00,3:00,8,3,6,3,0,0,1,3,3,1,1,1,2,1,1,2,3,3,0,2,3,2,1,1,4,$85 in 14 days,$55 in 25 days,$85 in 35 days,$34 tonight,$35 in 10 days,$55 in 20 days,$83 tonight,$21 tonight,$48 tonight,$40 tonight,$35 in 25 days,$65 tonight,$55 in 10 days,$30 tonight,$53 tonight,$47 tonight,$70 in 20 days,$50 tonight,$70 in 35 days,$27 tonight,$30 in 35 days,0.5,stim/N000.jpg,65,65,0.516666666,3,2,1,3,3,2,0,2,1,2,2,2,3,3,4,4,4,4,3,4,2,3,5,1,1,4,3,4,0,1,1,0,2,1,0,2,0,0,0,2,0,0,2,0,0,0,0,agree,600,,,,,,,,"<div style=""font-size:60px;"">?</div>",65,8,Practice,0.5
image-keyboard-response,34,1120148,0.0-18.0-0.8,w75c0glzv3q0dp3,0,20,Female,Female,148,5.4,30/08/2000,Single,French,"English, Spanish",No,No,No,3,3,3,3,4,0:30,0:00,2:00,3:30,0:00,0:45,0:00,1:00,4:00,0:00,1:00,0:15,1:30,4:00,0:00,2:00,4:00,3:00,8,3,6,3,0,0,1,3,3,1,1,1,2,1,1,2,3,3,0,2,3,2,1,1,4,$85 in 14 days,$55 in 25 days,$85 in 35 days,$34 tonight,$35 in 10 days,$55 in 20 days,$83 tonight,$21 tonight,$48 tonight,$40 tonight,$35 in 25 days,$65 tonight,$55 in 10 days,$30 tonight,$53 tonight,$47 tonight,$70 in 20 days,$50 tonight,$70 in 35 days,$27 tonight,$30 in 35 days,0.5,stim/N000.jpg,65,65,0.516666666,3,2,1,3,3,2,0,2,1,2,2,2,3,3,4,4,4,4,3,4,2,3,5,1,1,4,3,4,0,1,1,0,2,1,0,2,0,0,0,2,0,0,2,0,0,0,0,agree,null,,,,,,,,stim/T130.jpg,null,,,
html-keyboard-response,35,1120762,0.0-18.0-1.8,w75c0glzv3q0dp3,0,20,Female,Female,148,5.4,30/08/2000,Single,French,"English, Spanish",No,No,No,3,3,3,3,4,0:30,0:00,2:00,3:30,0:00,0:45,0:00,1:00,4:00,0:00,1:00,0:15,1:30,4:00,0:00,2:00,4:00,3:00,8,3,6,3,0,0,1,3,3,1,1,1,2,1,1,2,3,3,0,2,3,2,1,1,4,$85 in 14 days,$55 in 25 days,$85 in 35 days,$34 tonight,$35 in 10 days,$55 in 20 days,$83 tonight,$21 tonight,$48 tonight,$40 tonight,$35 in 25 days,$65 tonight,$55 in 10 days,$30 tonight,$53 tonight,$47 tonight,$70 in 20 days,$50 tonight,$70 in 35 days,$27 tonight,$30 in 35 days,0.5,stim/N000.jpg,65,65,0.516666666,3,2,1,3,3,2,0,2,1,2,2,2,3,3,4,4,4,4,3,4,2,3,5,1,1,4,3,4,0,1,1,0,2,1,0,2,0,0,0,2,0,0,2,0,0,0,0,agree,613,,,,,,,,"<div style=""font-size:60px;"">?</div>",65,9,Practice,0.5
image-keyboard-response,36,1121765,0.0-18.0-0.9,w75c0glzv3q0dp3,0,20,Female,Female,148,5.4,30/08/2000,Single,French,"English, Spanish",No,No,No,3,3,3,3,4,0:30,0:00,2:00,3:30,0:00,0:45,0:00,1:00,4:00,0:00,1:00,0:15,1:30,4:00,0:00,2:00,4:00,3:00,8,3,6,3,0,0,1,3,3,1,1,1,2,1,1,2,3,3,0,2,3,2,1,1,4,$85 in 14 days,$55 in 25 days,$85 in 35 days,$34 tonight,$35 in 10 days,$55 in 20 days,$83 tonight,$21 tonight,$48 tonight,$40 tonight,$35 in 25 days,$65 tonight,$55 in 10 days,$30 tonight,$53 tonight,$47 tonight,$70 in 20 days,$50 tonight,$70 in 35 days,$27 tonight,$30 in 35 days,0.5,stim/N000.jpg,65,65,0.516666666,3,2,1,3,3,2,0,2,1,2,2,2,3,3,4,4,4,4,3,4,2,3,5,1,1,4,3,4,0,1,1,0,2,1,0,2,0,0,0,2,0,0,2,0,0,0,0,agree,null,,,,,,,,stim/H190.jpg,null,,,
html-keyboard-response,37,1122418,0.0-18.0-1.9,w75c0glzv3q0dp3,0,20,Female,Female,148,5.4,30/08/2000,Single,French,"English, Spanish",No,No,No,3,3,3,3,4,0:30,0:00,2:00,3:30,0:00,0:45,0:00,1:00,4:00,0:00,1:00,0:15,1:30,4:00,0:00,2:00,4:00,3:00,8,3,6,3,0,0,1,3,3,1,1,1,2,1,1,2,3,3,0,2,3,2,1,1,4,$85 in 14 days,$55 in 25 days,$85 in 35 days,$34 tonight,$35 in 10 days,$55 in 20 days,$83 tonight,$21 tonight,$48 tonight,$40 tonight,$35 in 25 days,$65 tonight,$55 in 10 days,$30 tonight,$53 tonight,$47 tonight,$70 in 20 days,$50 tonight,$70 in 35 days,$27 tonight,$30 in 35 days,0.5,stim/N000.jpg,65,65,0.516666666,3,2,1,3,3,2,0,2,1,2,2,2,3,3,4,4,4,4,3,4,2,3,5,1,1,4,3,4,0,1,1,0,2,1,0,2,0,0,0,2,0,0,2,0,0,0,0,agree,651,,,,,,,,"<div style=""font-size:60px;"">?</div>",76,10,Practice,0.5
html-keyboard-response,38,1126659,0.0-19.0,w75c0glzv3q0dp3,0,20,Female,Female,148,5.4,30/08/2000,Single,French,"English, Spanish",No,No,No,3,3,3,3,4,0:30,0:00,2:00,3:30,0:00,0:45,0:00,1:00,4:00,0:00,1:00,0:15,1:30,4:00,0:00,2:00,4:00,3:00,8,3,6,3,0,0,1,3,3,1,1,1,2,1,1,2,3,3,0,2,3,2,1,1,4,$85 in 14 days,$55 in 25 days,$85 in 35 days,$34 tonight,$35 in 10 days,$55 in 20 days,$83 tonight,$21 tonight,$48 tonight,$40 tonight,$35 in 25 days,$65 tonight,$55 in 10 days,$30 tonight,$53 tonight,$47 tonight,$70 in 20 days,$50 tonight,$70 in 35 days,$27 tonight,$30 in 35 days,0.5,stim/N000.jpg,65,65,0.516666666,3,2,1,3,3,2,0,2,1,2,2,2,3,3,4,4,4,4,3,4,2,3,5,1,1,4,3,4,0,1,1,0,2,1,0,2,0,0,0,2,0,0,2,0,0,0,0,agree,3739,,,,,,,,"<p>You have now completed the practice series.</p><p>If you have any questions, please reload this page and read the instructions again.</p><p>Otherwise, you're ready to begin the study.</p><p><strong>REMEMBER</strong>: Press <b>L </b>when you think the model is overweight, and <b>A </b>if not. </p><p>Press SPACE when you're ready to start!</p>",32,,,
html-keyboard-response,39,1129455,0.0-20.0,w75c0glzv3q0dp3,0,20,Female,Female,148,5.4,30/08/2000,Single,French,"English, Spanish",No,No,No,3,3,3,3,4,0:30,0:00,2:00,3:30,0:00,0:45,0:00,1:00,4:00,0:00,1:00,0:15,1:30,4:00,0:00,2:00,4:00,3:00,8,3,6,3,0,0,1,3,3,1,1,1,2,1,1,2,3,3,0,2,3,2,1,1,4,$85 in 14 days,$55 in 25 days,$85 in 35 days,$34 tonight,$35 in 10 days,$55 in 20 days,$83 tonight,$21 tonight,$48 tonight,$40 tonight,$35 in 25 days,$65 tonight,$55 in 10 days,$30 tonight,$53 tonight,$47 tonight,$70 in 20 days,$50 tonight,$70 in 35 days,$27 tonight,$30 in 35 days,0.5,stim/N000.jpg,65,65,0.516666666,3,2,1,3,3,2,0,2,1,2,2,2,3,3,4,4,4,4,3,4,2,3,5,1,1,4,3,4,0,1,1,0,2,1,0,2,0,0,0,2,0,0,2,0,0,0,0,agree,2294,,,,,,,,<p>Block 1</p><p>Press SPACE to continue.</p>,32,,,
image-keyboard-response,40,1130957,0.0-21.0-0.0,w75c0glzv3q0dp3,0,20,Female,Female,148,5.4,30/08/2000,Single,French,"English, Spanish",No,No,No,3,3,3,3,4,0:30,0:00,2:00,3:30,0:00,0:45,0:00,1:00,4:00,0:00,1:00,0:15,1:30,4:00,0:00,2:00,4:00,3:00,8,3,6,3,0,0,1,3,3,1,1,1,2,1,1,2,3,3,0,2,3,2,1,1,4,$85 in 14 days,$55 in 25 days,$85 in 35 days,$34 tonight,$35 in 10 days,$55 in 20 days,$83 tonight,$21 tonight,$48 tonight,$40 tonight,$35 in 25 days,$65 tonight,$55 in 10 days,$30 tonight,$53 tonight,$47 tonight,$70 in 20 days,$50 tonight,$70 in 35 days,$27 tonight,$30 in 35 days,0.5,stim/N000.jpg,65,65,0.516666666,3,2,1,3,3,2,0,2,1,2,2,2,3,3,4,4,4,4,3,4,2,3,5,1,1,4,3,4,0,1,1,0,2,1,0,2,0,0,0,2,0,0,2,0,0,0,0,agree,null,,,,,,,,stim/H110.jpg,null,,,
html-keyboard-response,41,1131339,0.0-21.0-1.0,w75c0glzv3q0dp3,0,20,Female,Female,148,5.4,30/08/2000,Single,French,"English, Spanish",No,No,No,3,3,3,3,4,0:30,0:00,2:00,3:30,0:00,0:45,0:00,1:00,4:00,0:00,1:00,0:15,1:30,4:00,0:00,2:00,4:00,3:00,8,3,6,3,0,0,1,3,3,1,1,1,2,1,1,2,3,3,0,2,3,2,1,1,4,$85 in 14 days,$55 in 25 days,$85 in 35 days,$34 tonight,$35 in 10 days,$55 in 20 days,$83 tonight,$21 tonight,$48 tonight,$40 tonight,$35 in 25 days,$65 tonight,$55 in 10 days,$30 tonight,$53 tonight,$47 tonight,$70 in 20 days,$50 tonight,$70 in 35 days,$27 tonight,$30 in 35 days,0.5,stim/N000.jpg,65,65,0.516666666,3,2,1,3,3,2,0,2,1,2,2,2,3,3,4,4,4,4,3,4,2,3,5,1,1,4,3,4,0,1,1,0,2,1,0,2,0,0,0,2,0,0,2,0,0,0,0,agree,380,,,,,,,,"<div style=""font-size:60px;"">?</div>",76,1,1,0.5
image-keyboard-response,42,1132342,0.0-21.0-0.1,w75c0glzv3q0dp3,0,20,Female,Female,148,5.4,30/08/2000,Single,French,"English, Spanish",No,No,No,3,3,3,3,4,0:30,0:00,2:00,3:30,0:00,0:45,0:00,1:00,4:00,0:00,1:00,0:15,1:30,4:00,0:00,2:00,4:00,3:00,8,3,6,3,0,0,1,3,3,1,1,1,2,1,1,2,3,3,0,2,3,2,1,1,4,$85 in 14 days,$55 in 25 days,$85 in 35 days,$34 tonight,$35 in 10 days,$55 in 20 days,$83 tonight,$21 tonight,$48 tonight,$40 tonight,$35 in 25 days,$65 tonight,$55 in 10 days,$30 tonight,$53 tonight,$47 tonight,$70 in 20 days,$50 tonight,$70 in 35 days,$27 tonight,$30 in 35 days,0.5,stim/N000.jpg,65,65,0.516666666,3,2,1,3,3,2,0,2,1,2,2,2,3,3,4,4,4,4,3,4,2,3,5,1,1,4,3,4,0,1,1,0,2,1,0,2,0,0,0,2,0,0,2,0,0,0,0,agree,null,,,,,,,,stim/T010.jpg,null,,,
html-keyboard-response,43,1132761,0.0-21.0-1.1,w75c0glzv3q0dp3,0,20,Female,Female,148,5.4,30/08/2000,Single,French,"English, Spanish",No,No,No,3,3,3,3,4,0:30,0:00,2:00,3:30,0:00,0:45,0:00,1:00,4:00,0:00,1:00,0:15,1:30,4:00,0:00,2:00,4:00,3:00,8,3,6,3,0,0,1,3,3,1,1,1,2,1,1,2,3,3,0,2,3,2,1,1,4,$85 in 14 days,$55 in 25 days,$85 in 35 days,$34 tonight,$35 in 10 days,$55 in 20 days,$83 tonight,$21 tonight,$48 tonight,$40 tonight,$35 in 25 days,$65 tonight,$55 in 10 days,$30 tonight,$53 tonight,$47 tonight,$70 in 20 days,$50 tonight,$70 in 35 days,$27 tonight,$30 in 35 days,0.5,stim/N000.jpg,65,65,0.516666666,3,2,1,3,3,2,0,2,1,2,2,2,3,3,4,4,4,4,3,4,2,3,5,1,1,4,3,4,0,1,1,0,2,1,0,2,0,0,0,2,0,0,2,0,0,0,0,agree,418,,,,,,,,"<div style=""font-size:60px;"">?</div>",65,2,1,0.5
image-keyboard-response,44,1133765,0.0-21.0-0.2,w75c0glzv3q0dp3,0,20,Female,Female,148,5.4,30/08/2000,Single,French,"English, Spanish",No,No,No,3,3,3,3,4,0:30,0:00,2:00,3:30,0:00,0:45,0:00,1:00,4:00,0:00,1:00,0:15,1:30,4:00,0:00,2:00,4:00,3:00,8,3,6,3,0,0,1,3,3,1,1,1,2,1,1,2,3,3,0,2,3,2,1,1,4,$85 in 14 days,$55 in 25 days,$85 in 35 days,$34 tonight,$35 in 10 days,$55 in 20 days,$83 tonight,$21 tonight,$48 tonight,$40 tonight,$35 in 25 days,$65 tonight,$55 in 10 days,$30 tonight,$53 tonight,$47 tonight,$70 in 20 days,$50 tonight,$70 in 35 days,$27 tonight,$30 in 35 days,0.5,stim/N000.jpg,65,65,0.516666666,3,2,1,3,3,2,0,2,1,2,2,2,3,3,4,4,4,4,3,4,2,3,5,1,1,4,3,4,0,1,1,0,2,1,0,2,0,0,0,2,0,0,2,0,0,0,0,agree,null,,,,,,,,stim/H270.jpg,null,,,
html-keyboard-response,45,1134246,0.0-21.0-1.2,w75c0glzv3q0dp3,0,20,Female,Female,148,5.4,30/08/2000,Single,French,"English, Spanish",No,No,No,3,3,3,3,4,0:30,0:00,2:00,3:30,0:00,0:45,0:00,1:00,4:00,0:00,1:00,0:15,1:30,4:00,0:00,2:00,4:00,3:00,8,3,6,3,0,0,1,3,3,1,1,1,2,1,1,2,3,3,0,2,3,2,1,1,4,$85 in 14 days,$55 in 25 days,$85 in 35 days,$34 tonight,$35 in 10 days,$55 in 20 days,$83 tonight,$21 tonight,$48 tonight,$40 tonight,$35 in 25 days,$65 tonight,$55 in 10 days,$30 tonight,$53 tonight,$47 tonight,$70 in 20 days,$50 tonight,$70 in 35 days,$27 tonight,$30 in 35 days,0.5,stim/N000.jpg,65,65,0.516666666,3,2,1,3,3,2,0,2,1,2,2,2,3,3,4,4,4,4,3,4,2,3,5,1,1,4,3,4,0,1,1,0,2,1,0,2,0,0,0,2,0,0,2,0,0,0,0,agree,480,,,,,,,,"<div style=""font-size:60px;"">?</div>",76,3,1,0.5
image-keyboard-response,46,1135250,0.0-21.0-0.3,w75c0glzv3q0dp3,0,20,Female,Female,148,5.4,30/08/2000,Single,French,"English, Spanish",No,No,No,3,3,3,3,4,0:30,0:00,2:00,3:30,0:00,0:45,0:00,1:00,4:00,0:00,1:00,0:15,1:30,4:00,0:00,2:00,4:00,3:00,8,3,6,3,0,0,1,3,3,1,1,1,2,1,1,2,3,3,0,2,3,2,1,1,4,$85 in 14 days,$55 in 25 days,$85 in 35 days,$34 tonight,$35 in 10 days,$55 in 20 days,$83 tonight,$21 tonight,$48 tonight,$40 tonight,$35 in 25 days,$65 tonight,$55 in 10 days,$30 tonight,$53 tonight,$47 tonight,$70 in 20 days,$50 tonight,$70 in 35 days,$27 tonight,$30 in 35 days,0.5,stim/N000.jpg,65,65,0.516666666,3,2,1,3,3,2,0,2,1,2,2,2,3,3,4,4,4,4,3,4,2,3,5,1,1,4,3,4,0,1,1,0,2,1,0,2,0,0,0,2,0,0,2,0,0,0,0,agree,null,,,,,,,,stim/T090.jpg,null,,,
html-keyboard-response,47,1135818,0.0-21.0-1.3,w75c0glzv3q0dp3,0,20,Female,Female,148,5.4,30/08/2000,Single,French,"English, Spanish",No,No,No,3,3,3,3,4,0:30,0:00,2:00,3:30,0:00,0:45,0:00,1:00,4:00,0:00,1:00,0:15,1:30,4:00,0:00,2:00,4:00,3:00,8,3,6,3,0,0,1,3,3,1,1,1,2,1,1,2,3,3,0,2,3,2,1,1,4,$85 in 14 days,$55 in 25 days,$85 in 35 days,$34 tonight,$35 in 10 days,$55 in 20 days,$83 tonight,$21 tonight,$48 tonight,$40 tonight,$35 in 25 days,$65 tonight,$55 in 10 days,$30 tonight,$53 tonight,$47 tonight,$70 in 20 days,$50 tonight,$70 in 35 days,$27 tonight,$30 in 35 days,0.5,stim/N000.jpg,65,65,0.516666666,3,2,1,3,3,2,0,2,1,2,2,2,3,3,4,4,4,4,3,4,2,3,5,1,1,4,3,4,0,1,1,0,2,1,0,2,0,0,0,2,0,0,2,0,0,0,0,agree,567,,,,,,,,"<div style=""font-size:60px;"">?</div>",65,4,1,0.5
image-keyboard-response,48,1136821,0.0-21.0-0.4,w75c0glzv3q0dp3,0,20,Female,Female,148,5.4,30/08/2000,Single,French,"English, Spanish",No,No,No,3,3,3,3,4,0:30,0:00,2:00,3:30,0:00,0:45,0:00,1:00,4:00,0:00,1:00,0:15,1:30,4:00,0:00,2:00,4:00,3:00,8,3,6,3,0,0,1,3,3,1,1,1,2,1,1,2,3,3,0,2,3,2,1,1,4,$85 in 14 days,$55 in 25 days,$85 in 35 days,$34 tonight,$35 in 10 days,$55 in 20 days,$83 tonight,$21 tonight,$48 tonight,$40 tonight,$35 in 25 days,$65 tonight,$55 in 10 days,$30 tonight,$53 tonight,$47 tonight,$70 in 20 days,$50 tonight,$70 in 35 days,$27 tonight,$30 in 35 days,0.5,stim/N000.jpg,65,65,0.516666666,3,2,1,3,3,2,0,2,1,2,2,2,3,3,4,4,4,4,3,4,2,3,5,1,1,4,3,4,0,1,1,0,2,1,0,2,0,0,0,2,0,0,2,0,0,0,0,agree,null,,,,,,,,stim/H010.jpg,null,,,
html-keyboard-response,49,1137167,0.0-21.0-1.4,w75c0glzv3q0dp3,0,20,Female,Female,148,5.4,30/08/2000,Single,French,"English, Spanish",No,No,No,3,3,3,3,4,0:30,0:00,2:00,3:30,0:00,0:45,0:00,1:00,4:00,0:00,1:00,0:15,1:30,4:00,0:00,2:00,4:00,3:00,8,3,6,3,0,0,1,3,3,1,1,1,2,1,1,2,3,3,0,2,3,2,1,1,4,$85 in 14 days,$55 in 25 days,$85 in 35 days,$34 tonight,$35 in 10 days,$55 in 20 days,$83 tonight,$21 tonight,$48 tonight,$40 tonight,$35 in 25 days,$65 tonight,$55 in 10 days,$30 tonight,$53 tonight,$47 tonight,$70 in 20 days,$50 tonight,$70 in 35 days,$27 tonight,$30 in 35 days,0.5,stim/N000.jpg,65,65,0.516666666,3,2,1,3,3,2,0,2,1,2,2,2,3,3,4,4,4,4,3,4,2,3,5,1,1,4,3,4,0,1,1,0,2,1,0,2,0,0,0,2,0,0,2,0,0,0,0,agree,345,,,,,,,,"<div style=""font-size:60px;"">?</div>",65,5,1,0.5
image-keyboard-response,50,1138170,0.0-21.0-0.5,w75c0glzv3q0dp3,0,20,Female,Female,148,5.4,30/08/2000,Single,French,"English, Spanish",No,No,No,3,3,3,3,4,0:30,0:00,2:00,3:30,0:00,0:45,0:00,1:00,4:00,0:00,1:00,0:15,1:30,4:00,0:00,2:00,4:00,3:00,8,3,6,3,0,0,1,3,3,1,1,1,2,1,1,2,3,3,0,2,3,2,1,1,4,$85 in 14 days,$55 in 25 days,$85 in 35 days,$34 tonight,$35 in 10 days,$55 in 20 days,$83 tonight,$21 tonight,$48 tonight,$40 tonight,$35 in 25 days,$65 tonight,$55 in 10 days,$30 tonight,$53 tonight,$47 tonight,$70 in 20 days,$50 tonight,$70 in 35 days,$27 tonight,$30 in 35 days,0.5,stim/N000.jpg,65,65,0.516666666,3,2,1,3,3,2,0,2,1,2,2,2,3,3,4,4,4,4,3,4,2,3,5,1,1,4,3,4,0,1,1,0,2,1,0,2,0,0,0,2,0,0,2,0,0,0,0,agree,null,,,,,,,,stim/T020.jpg,null,,,
html-keyboard-response,51,1138692,0.0-21.0-1.5,w75c0glzv3q0dp3,0,20,Female,Female,148,5.4,30/08/2000,Single,French,"English, Spanish",No,No,No,3,3,3,3,4,0:30,0:00,2:00,3:30,0:00,0:45,0:00,1:00,4:00,0:00,1:00,0:15,1:30,4:00,0:00,2:00,4:00,3:00,8,3,6,3,0,0,1,3,3,1,1,1,2,1,1,2,3,3,0,2,3,2,1,1,4,$85 in 14 days,$55 in 25 days,$85 in 35 days,$34 tonight,$35 in 10 days,$55 in 20 days,$83 tonight,$21 tonight,$48 tonight,$40 tonight,$35 in 25 days,$65 tonight,$55 in 10 days,$30 tonight,$53 tonight,$47 tonight,$70 in 20 days,$50 tonight,$70 in 35 days,$27 tonight,$30 in 35 days,0.5,stim/N000.jpg,65,65,0.516666666,3,2,1,3,3,2,0,2,1,2,2,2,3,3,4,4,4,4,3,4,2,3,5,1,1,4,3,4,0,1,1,0,2,1,0,2,0,0,0,2,0,0,2,0,0,0,0,agree,521,,,,,,,,"<div style=""font-size:60px;"">?</div>",65,6,1,0.5
image-keyboard-response,52,1139695,0.0-21.0-0.6,w75c0glzv3q0dp3,0,20,Female,Female,148,5.4,30/08/2000,Single,French,"English, Spanish",No,No,No,3,3,3,3,4,0:30,0:00,2:00,3:30,0:00,0:45,0:00,1:00,4:00,0:00,1:00,0:15,1:30,4:00,0:00,2:00,4:00,3:00,8,3,6,3,0,0,1,3,3,1,1,1,2,1,1,2,3,3,0,2,3,2,1,1,4,$85 in 14 days,$55 in 25 days,$85 in 35 days,$34 tonight,$35 in 10 days,$55 in 20 days,$83 tonight,$21 tonight,$48 tonight,$40 tonight,$35 in 25 days,$65 tonight,$55 in 10 days,$30 tonight,$53 tonight,$47 tonight,$70 in 20 days,$50 tonight,$70 in 35 days,$27 tonight,$30 in 35 days,0.5,stim/N000.jpg,65,65,0.516666666,3,2,1,3,3,2,0,2,1,2,2,2,3,3,4,4,4,4,3,4,2,3,5,1,1,4,3,4,0,1,1,0,2,1,0,2,0,0,0,2,0,0,2,0,0,0,0,agree,null,,,,,,,,stim/T170.jpg,null,,,
html-keyboard-response,53,1140276,0.0-21.0-1.6,w75c0glzv3q0dp3,0,20,Female,Female,148,5.4,30/08/2000,Single,French,"English, Spanish",No,No,No,3,3,3,3,4,0:30,0:00,2:00,3:30,0:00,0:45,0:00,1:00,4:00,0:00,1:00,0:15,1:30,4:00,0:00,2:00,4:00,3:00,8,3,6,3,0,0,1,3,3,1,1,1,2,1,1,2,3,3,0,2,3,2,1,1,4,$85 in 14 days,$55 in 25 days,$85 in 35 days,$34 tonight,$35 in 10 days,$55 in 20 days,$83 tonight,$21 tonight,$48 tonight,$40 tonight,$35 in 25 days,$65 tonight,$55 in 10 days,$30 tonight,$53 tonight,$47 tonight,$70 in 20 days,$50 tonight,$70 in 35 days,$27 tonight,$30 in 35 days,0.5,stim/N000.jpg,65,65,0.516666666,3,2,1,3,3,2,0,2,1,2,2,2,3,3,4,4,4,4,3,4,2,3,5,1,1,4,3,4,0,1,1,0,2,1,0,2,0,0,0,2,0,0,2,0,0,0,0,agree,580,,,,,,,,"<div style=""font-size:60px;"">?</div>",65,7,1,0.5
image-keyboard-response,54,1141280,0.0-21.0-0.7,w75c0glzv3q0dp3,0,20,Female,Female,148,5.4,30/08/2000,Single,French,"English, Spanish",No,No,No,3,3,3,3,4,0:30,0:00,2:00,3:30,0:00,0:45,0:00,1:00,4:00,0:00,1:00,0:15,1:30,4:00,0:00,2:00,4:00,3:00,8,3,6,3,0,0,1,3,3,1,1,1,2,1,1,2,3,3,0,2,3,2,1,1,4,$85 in 14 days,$55 in 25 days,$85 in 35 days,$34 tonight,$35 in 10 days,$55 in 20 days,$83 tonight,$21 tonight,$48 tonight,$40 tonight,$35 in 25 days,$65 tonight,$55 in 10 days,$30 tonight,$53 tonight,$47 tonight,$70 in 20 days,$50 tonight,$70 in 35 days,$27 tonight,$30 in 35 days,0.5,stim/N000.jpg,65,65,0.516666666,3,2,1,3,3,2,0,2,1,2,2,2,3,3,4,4,4,4,3,4,2,3,5,1,1,4,3,4,0,1,1,0,2,1,0,2,0,0,0,2,0,0,2,0,0,0,0,agree,null,,,,,,,,stim/T010.jpg,null,,,
html-keyboard-response,55,1141775,0.0-21.0-1.7,w75c0glzv3q0dp3,0,20,Female,Female,148,5.4,30/08/2000,Single,French,"English, Spanish",No,No,No,3,3,3,3,4,0:30,0:00,2:00,3:30,0:00,0:45,0:00,1:00,4:00,0:00,1:00,0:15,1:30,4:00,0:00,2:00,4:00,3:00,8,3,6,3,0,0,1,3,3,1,1,1,2,1,1,2,3,3,0,2,3,2,1,1,4,$85 in 14 days,$55 in 25 days,$85 in 35 days,$34 tonight,$35 in 10 days,$55 in 20 days,$83 tonight,$21 tonight,$48 tonight,$40 tonight,$35 in 25 days,$65 tonight,$55 in 10 days,$30 tonight,$53 tonight,$47 tonight,$70 in 20 days,$50 tonight,$70 in 35 days,$27 tonight,$30 in 35 days,0.5,stim/N000.jpg,65,65,0.516666666,3,2,1,3,3,2,0,2,1,2,2,2,3,3,4,4,4,4,3,4,2,3,5,1,1,4,3,4,0,1,1,0,2,1,0,2,0,0,0,2,0,0,2,0,0,0,0,agree,495,,,,,,,,"<div style=""font-size:60px;"">?</div>",65,8,1,0.5
image-keyboard-response,56,1142779,0.0-21.0-0.8,w75c0glzv3q0dp3,0,20,Female,Female,148,5.4,30/08/2000,Single,French,"English, Spanish",No,No,No,3,3,3,3,4,0:30,0:00,2:00,3:30,0:00,0:45,0:00,1:00,4:00,0:00,1:00,0:15,1:30,4:00,0:00,2:00,4:00,3:00,8,3,6,3,0,0,1,3,3,1,1,1,2,1,1,2,3,3,0,2,3,2,1,1,4,$85 in 14 days,$55 in 25 days,$85 in 35 days,$34 tonight,$35 in 10 days,$55 in 20 days,$83 tonight,$21 tonight,$48 tonight,$40 tonight,$35 in 25 days,$65 tonight,$55 in 10 days,$30 tonight,$53 tonight,$47 tonight,$70 in 20 days,$50 tonight,$70 in 35 days,$27 tonight,$30 in 35 days,0.5,stim/N000.jpg,65,65,0.516666666,3,2,1,3,3,2,0,2,1,2,2,2,3,3,4,4,4,4,3,4,2,3,5,1,1,4,3,4,0,1,1,0,2,1,0,2,0,0,0,2,0,0,2,0,0,0,0,agree,null,,,,,,,,stim/H030.jpg,null,,,
html-keyboard-response,57,1143432,0.0-21.0-1.8,w75c0glzv3q0dp3,0,20,Female,Female,148,5.4,30/08/2000,Single,French,"English, Spanish",No,No,No,3,3,3,3,4,0:30,0:00,2:00,3:30,0:00,0:45,0:00,1:00,4:00,0:00,1:00,0:15,1:30,4:00,0:00,2:00,4:00,3:00,8,3,6,3,0,0,1,3,3,1,1,1,2,1,1,2,3,3,0,2,3,2,1,1,4,$85 in 14 days,$55 in 25 days,$85 in 35 days,$34 tonight,$35 in 10 days,$55 in 20 days,$83 tonight,$21 tonight,$48 tonight,$40 tonight,$35 in 25 days,$65 tonight,$55 in 10 days,$30 tonight,$53 tonight,$47 tonight,$70 in 20 days,$50 tonight,$70 in 35 days,$27 tonight,$30 in 35 days,0.5,stim/N000.jpg,65,65,0.516666666,3,2,1,3,3,2,0,2,1,2,2,2,3,3,4,4,4,4,3,4,2,3,5,1,1,4,3,4,0,1,1,0,2,1,0,2,0,0,0,2,0,0,2,0,0,0,0,agree,653,,,,,,,,"<div style=""font-size:60px;"">?</div>",65,9,1,0.5
image-keyboard-response,58,1144436,0.0-21.0-0.9,w75c0glzv3q0dp3,0,20,Female,Female,148,5.4,30/08/2000,Single,French,"English, Spanish",No,No,No,3,3,3,3,4,0:30,0:00,2:00,3:30,0:00,0:45,0:00,1:00,4:00,0:00,1:00,0:15,1:30,4:00,0:00,2:00,4:00,3:00,8,3,6,3,0,0,1,3,3,1,1,1,2,1,1,2,3,3,0,2,3,2,1,1,4,$85 in 14 days,$55 in 25 days,$85 in 35 days,$34 tonight,$35 in 10 days,$55 in 20 days,$83 tonight,$21 tonight,$48 tonight,$40 tonight,$35 in 25 days,$65 tonight,$55 in 10 days,$30 tonight,$53 tonight,$47 tonight,$70 in 20 days,$50 tonight,$70 in 35 days,$27 tonight,$30 in 35 days,0.5,stim/N000.jpg,65,65,0.516666666,3,2,1,3,3,2,0,2,1,2,2,2,3,3,4,4,4,4,3,4,2,3,5,1,1,4,3,4,0,1,1,0,2,1,0,2,0,0,0,2,0,0,2,0,0,0,0,agree,null,,,,,,,,stim/H230.jpg,null,,,
html-keyboard-response,59,1144825,0.0-21.0-1.9,w75c0glzv3q0dp3,0,20,Female,Female,148,5.4,30/08/2000,Single,French,"English, Spanish",No,No,No,3,3,3,3,4,0:30,0:00,2:00,3:30,0:00,0:45,0:00,1:00,4:00,0:00,1:00,0:15,1:30,4:00,0:00,2:00,4:00,3:00,8,3,6,3,0,0,1,3,3,1,1,1,2,1,1,2,3,3,0,2,3,2,1,1,4,$85 in 14 days,$55 in 25 days,$85 in 35 days,$34 tonight,$35 in 10 days,$55 in 20 days,$83 tonight,$21 tonight,$48 tonight,$40 tonight,$35 in 25 days,$65 tonight,$55 in 10 days,$30 tonight,$53 tonight,$47 tonight,$70 in 20 days,$50 tonight,$70 in 35 days,$27 tonight,$30 in 35 days,0.5,stim/N000.jpg,65,65,0.516666666,3,2,1,3,3,2,0,2,1,2,2,2,3,3,4,4,4,4,3,4,2,3,5,1,1,4,3,4,0,1,1,0,2,1,0,2,0,0,0,2,0,0,2,0,0,0,0,agree,388,,,,,,,,"<div style=""font-size:60px;"">?</div>",76,10,1,0.5
image-keyboard-response,60,1145828,0.0-21.0-0.10,w75c0glzv3q0dp3,0,20,Female,Female,148,5.4,30/08/2000,Single,French,"English, Spanish",No,No,No,3,3,3,3,4,0:30,0:00,2:00,3:30,0:00,0:45,0:00,1:00,4:00,0:00,1:00,0:15,1:30,4:00,0:00,2:00,4:00,3:00,8,3,6,3,0,0,1,3,3,1,1,1,2,1,1,2,3,3,0,2,3,2,1,1,4,$85 in 14 days,$55 in 25 days,$85 in 35 days,$34 tonight,$35 in 10 days,$55 in 20 days,$83 tonight,$21 tonight,$48 tonight,$40 tonight,$35 in 25 days,$65 tonight,$55 in 10 days,$30 tonight,$53 tonight,$47 tonight,$70 in 20 days,$50 tonight,$70 in 35 days,$27 tonight,$30 in 35 days,0.5,stim/N000.jpg,65,65,0.516666666,3,2,1,3,3,2,0,2,1,2,2,2,3,3,4,4,4,4,3,4,2,3,5,1,1,4,3,4,0,1,1,0,2,1,0,2,0,0,0,2,0,0,2,0,0,0,0,agree,null,,,,,,,,stim/H280.jpg,null,,,
html-keyboard-response,61,1146189,0.0-21.0-1.10,w75c0glzv3q0dp3,0,20,Female,Female,148,5.4,30/08/2000,Single,French,"English, Spanish",No,No,No,3,3,3,3,4,0:30,0:00,2:00,3:30,0:00,0:45,0:00,1:00,4:00,0:00,1:00,0:15,1:30,4:00,0:00,2:00,4:00,3:00,8,3,6,3,0,0,1,3,3,1,1,1,2,1,1,2,3,3,0,2,3,2,1,1,4,$85 in 14 days,$55 in 25 days,$85 in 35 days,$34 tonight,$35 in 10 days,$55 in 20 days,$83 tonight,$21 tonight,$48 tonight,$40 tonight,$35 in 25 days,$65 tonight,$55 in 10 days,$30 tonight,$53 tonight,$47 tonight,$70 in 20 days,$50 tonight,$70 in 35 days,$27 tonight,$30 in 35 days,0.5,stim/N000.jpg,65,65,0.516666666,3,2,1,3,3,2,0,2,1,2,2,2,3,3,4,4,4,4,3,4,2,3,5,1,1,4,3,4,0,1,1,0,2,1,0,2,0,0,0,2,0,0,2,0,0,0,0,agree,360,,,,,,,,"<div style=""font-size:60px;"">?</div>",76,11,1,0.5
image-keyboard-response,62,1147192,0.0-21.0-0.11,w75c0glzv3q0dp3,0,20,Female,Female,148,5.4,30/08/2000,Single,French,"English, Spanish",No,No,No,3,3,3,3,4,0:30,0:00,2:00,3:30,0:00,0:45,0:00,1:00,4:00,0:00,1:00,0:15,1:30,4:00,0:00,2:00,4:00,3:00,8,3,6,3,0,0,1,3,3,1,1,1,2,1,1,2,3,3,0,2,3,2,1,1,4,$85 in 14 days,$55 in 25 days,$85 in 35 days,$34 tonight,$35 in 10 days,$55 in 20 days,$83 tonight,$21 tonight,$48 tonight,$40 tonight,$35 in 25 days,$65 tonight,$55 in 10 days,$30 tonight,$53 tonight,$47 tonight,$70 in 20 days,$50 tonight,$70 in 35 days,$27 tonight,$30 in 35 days,0.5,stim/N000.jpg,65,65,0.516666666,3,2,1,3,3,2,0,2,1,2,2,2,3,3,4,4,4,4,3,4,2,3,5,1,1,4,3,4,0,1,1,0,2,1,0,2,0,0,0,2,0,0,2,0,0,0,0,agree,null,,,,,,,,stim/H120.jpg,null,,,
html-keyboard-response,63,1147619,0.0-21.0-1.11,w75c0glzv3q0dp3,0,20,Female,Female,148,5.4,30/08/2000,Single,French,"English, Spanish",No,No,No,3,3,3,3,4,0:30,0:00,2:00,3:30,0:00,0:45,0:00,1:00,4:00,0:00,1:00,0:15,1:30,4:00,0:00,2:00,4:00,3:00,8,3,6,3,0,0,1,3,3,1,1,1,2,1,1,2,3,3,0,2,3,2,1,1,4,$85 in 14 days,$55 in 25 days,$85 in 35 days,$34 tonight,$35 in 10 days,$55 in 20 days,$83 tonight,$21 tonight,$48 tonight,$40 tonight,$35 in 25 days,$65 tonight,$55 in 10 days,$30 tonight,$53 tonight,$47 tonight,$70 in 20 days,$50 tonight,$70 in 35 days,$27 tonight,$30 in 35 days,0.5,stim/N000.jpg,65,65,0.516666666,3,2,1,3,3,2,0,2,1,2,2,2,3,3,4,4,4,4,3,4,2,3,5,1,1,4,3,4,0,1,1,0,2,1,0,2,0,0,0,2,0,0,2,0,0,0,0,agree,425,,,,,,,,"<div style=""font-size:60px;"">?</div>",76,12,1,0.5
image-keyboard-response,64,1148622,0.0-21.0-0.12,w75c0glzv3q0dp3,0,20,Female,Female,148,5.4,30/08/2000,Single,French,"English, Spanish",No,No,No,3,3,3,3,4,0:30,0:00,2:00,3:30,0:00,0:45,0:00,1:00,4:00,0:00,1:00,0:15,1:30,4:00,0:00,2:00,4:00,3:00,8,3,6,3,0,0,1,3,3,1,1,1,2,1,1,2,3,3,0,2,3,2,1,1,4,$85 in 14 days,$55 in 25 days,$85 in 35 days,$34 tonight,$35 in 10 days,$55 in 20 days,$83 tonight,$21 tonight,$48 tonight,$40 tonight,$35 in 25 days,$65 tonight,$55 in 10 days,$30 tonight,$53 tonight,$47 tonight,$70 in 20 days,$50 tonight,$70 in 35 days,$27 tonight,$30 in 35 days,0.5,stim/N000.jpg,65,65,0.516666666,3,2,1,3,3,2,0,2,1,2,2,2,3,3,4,4,4,4,3,4,2,3,5,1,1,4,3,4,0,1,1,0,2,1,0,2,0,0,0,2,0,0,2,0,0,0,0,agree,null,,,,,,,,stim/H280.jpg,null,,,
html-keyboard-response,65,1149128,0.0-21.0-1.12,w75c0glzv3q0dp3,0,20,Female,Female,148,5.4,30/08/2000,Single,French,"English, Spanish",No,No,No,3,3,3,3,4,0:30,0:00,2:00,3:30,0:00,0:45,0:00,1:00,4:00,0:00,1:00,0:15,1:30,4:00,0:00,2:00,4:00,3:00,8,3,6,3,0,0,1,3,3,1,1,1,2,1,1,2,3,3,0,2,3,2,1,1,4,$85 in 14 days,$55 in 25 days,$85 in 35 days,$34 tonight,$35 in 10 days,$55 in 20 days,$83 tonight,$21 tonight,$48 tonight,$40 tonight,$35 in 25 days,$65 tonight,$55 in 10 days,$30 tonight,$53 tonight,$47 tonight,$70 in 20 days,$50 tonight,$70 in 35 days,$27 tonight,$30 in 35 days,0.5,stim/N000.jpg,65,65,0.516666666,3,2,1,3,3,2,0,2,1,2,2,2,3,3,4,4,4,4,3,4,2,3,5,1,1,4,3,4,0,1,1,0,2,1,0,2,0,0,0,2,0,0,2,0,0,0,0,agree,505,,,,,,,,"<div style=""font-size:60px;"">?</div>",76,13,1,0.5
image-keyboard-response,66,1150131,0.0-21.0-0.13,w75c0glzv3q0dp3,0,20,Female,Female,148,5.4,30/08/2000,Single,French,"English, Spanish",No,No,No,3,3,3,3,4,0:30,0:00,2:00,3:30,0:00,0:45,0:00,1:00,4:00,0:00,1:00,0:15,1:30,4:00,0:00,2:00,4:00,3:00,8,3,6,3,0,0,1,3,3,1,1,1,2,1,1,2,3,3,0,2,3,2,1,1,4,$85 in 14 days,$55 in 25 days,$85 in 35 days,$34 tonight,$35 in 10 days,$55 in 20 days,$83 tonight,$21 tonight,$48 tonight,$40 tonight,$35 in 25 days,$65 tonight,$55 in 10 days,$30 tonight,$53 tonight,$47 tonight,$70 in 20 days,$50 tonight,$70 in 35 days,$27 tonight,$30 in 35 days,0.5,stim/N000.jpg,65,65,0.516666666,3,2,1,3,3,2,0,2,1,2,2,2,3,3,4,4,4,4,3,4,2,3,5,1,1,4,3,4,0,1,1,0,2,1,0,2,0,0,0,2,0,0,2,0,0,0,0,agree,null,,,,,,,,stim/H180.jpg,null,,,
html-keyboard-response,67,1150673,0.0-21.0-1.13,w75c0glzv3q0dp3,0,20,Female,Female,148,5.4,30/08/2000,Single,French,"English, Spanish",No,No,No,3,3,3,3,4,0:30,0:00,2:00,3:30,0:00,0:45,0:00,1:00,4:00,0:00,1:00,0:15,1:30,4:00,0:00,2:00,4:00,3:00,8,3,6,3,0,0,1,3,3,1,1,1,2,1,1,2,3,3,0,2,3,2,1,1,4,$85 in 14 days,$55 in 25 days,$85 in 35 days,$34 tonight,$35 in 10 days,$55 in 20 days,$83 tonight,$21 tonight,$48 tonight,$40 tonight,$35 in 25 days,$65 tonight,$55 in 10 days,$30 tonight,$53 tonight,$47 tonight,$70 in 20 days,$50 tonight,$70 in 35 days,$27 tonight,$30 in 35 days,0.5,stim/N000.jpg,65,65,0.516666666,3,2,1,3,3,2,0,2,1,2,2,2,3,3,4,4,4,4,3,4,2,3,5,1,1,4,3,4,0,1,1,0,2,1,0,2,0,0,0,2,0,0,2,0,0,0,0,agree,540,,,,,,,,"<div style=""font-size:60px;"">?</div>",76,14,1,0.5
image-keyboard-response,68,1151674,0.0-21.0-0.14,w75c0glzv3q0dp3,0,20,Female,Female,148,5.4,30/08/2000,Single,French,"English, Spanish",No,No,No,3,3,3,3,4,0:30,0:00,2:00,3:30,0:00,0:45,0:00,1:00,4:00,0:00,1:00,0:15,1:30,4:00,0:00,2:00,4:00,3:00,8,3,6,3,0,0,1,3,3,1,1,1,2,1,1,2,3,3,0,2,3,2,1,1,4,$85 in 14 days,$55 in 25 days,$85 in 35 days,$34 tonight,$35 in 10 days,$55 in 20 days,$83 tonight,$21 tonight,$48 tonight,$40 tonight,$35 in 25 days,$65 tonight,$55 in 10 days,$30 tonight,$53 tonight,$47 tonight,$70 in 20 days,$50 tonight,$70 in 35 days,$27 tonight,$30 in 35 days,0.5,stim/N000.jpg,65,65,0.516666666,3,2,1,3,3,2,0,2,1,2,2,2,3,3,4,4,4,4,3,4,2,3,5,1,1,4,3,4,0,1,1,0,2,1,0,2,0,0,0,2,0,0,2,0,0,0,0,agree,null,,,,,,,,stim/H050.jpg,null,,,
html-keyboard-response,69,1152115,0.0-21.0-1.14,w75c0glzv3q0dp3,0,20,Female,Female,148,5.4,30/08/2000,Single,French,"English, Spanish",No,No,No,3,3,3,3,4,0:30,0:00,2:00,3:30,0:00,0:45,0:00,1:00,4:00,0:00,1:00,0:15,1:30,4:00,0:00,2:00,4:00,3:00,8,3,6,3,0,0,1,3,3,1,1,1,2,1,1,2,3,3,0,2,3,2,1,1,4,$85 in 14 days,$55 in 25 days,$85 in 35 days,$34 tonight,$35 in 10 days,$55 in 20 days,$83 tonight,$21 tonight,$48 tonight,$40 tonight,$35 in 25 days,$65 tonight,$55 in 10 days,$30 tonight,$53 tonight,$47 tonight,$70 in 20 days,$50 tonight,$70 in 35 days,$27 tonight,$30 in 35 days,0.5,stim/N000.jpg,65,65,0.516666666,3,2,1,3,3,2,0,2,1,2,2,2,3,3,4,4,4,4,3,4,2,3,5,1,1,4,3,4,0,1,1,0,2,1,0,2,0,0,0,2,0,0,2,0,0,0,0,agree,440,,,,,,,,"<div style=""font-size:60px;"">?</div>",65,15,1,0.5
image-keyboard-response,70,1153118,0.0-21.0-0.15,w75c0glzv3q0dp3,0,20,Female,Female,148,5.4,30/08/2000,Single,French,"English, Spanish",No,No,No,3,3,3,3,4,0:30,0:00,2:00,3:30,0:00,0:45,0:00,1:00,4:00,0:00,1:00,0:15,1:30,4:00,0:00,2:00,4:00,3:00,8,3,6,3,0,0,1,3,3,1,1,1,2,1,1,2,3,3,0,2,3,2,1,1,4,$85 in 14 days,$55 in 25 days,$85 in 35 days,$34 tonight,$35 in 10 days,$55 in 20 days,$83 tonight,$21 tonight,$48 tonight,$40 tonight,$35 in 25 days,$65 tonight,$55 in 10 days,$30 tonight,$53 tonight,$47 tonight,$70 in 20 days,$50 tonight,$70 in 35 days,$27 tonight,$30 in 35 days,0.5,stim/N000.jpg,65,65,0.516666666,3,2,1,3,3,2,0,2,1,2,2,2,3,3,4,4,4,4,3,4,2,3,5,1,1,4,3,4,0,1,1,0,2,1,0,2,0,0,0,2,0,0,2,0,0,0,0,agree,null,,,,,,,,stim/T250.jpg,null,,,
html-keyboard-response,71,1153573,0.0-21.0-1.15,w75c0glzv3q0dp3,0,20,Female,Female,148,5.4,30/08/2000,Single,French,"English, Spanish",No,No,No,3,3,3,3,4,0:30,0:00,2:00,3:30,0:00,0:45,0:00,1:00,4:00,0:00,1:00,0:15,1:30,4:00,0:00,2:00,4:00,3:00,8,3,6,3,0,0,1,3,3,1,1,1,2,1,1,2,3,3,0,2,3,2,1,1,4,$85 in 14 days,$55 in 25 days,$85 in 35 days,$34 tonight,$35 in 10 days,$55 in 20 days,$83 tonight,$21 tonight,$48 tonight,$40 tonight,$35 in 25 days,$65 tonight,$55 in 10 days,$30 tonight,$53 tonight,$47 tonight,$70 in 20 days,$50 tonight,$70 in 35 days,$27 tonight,$30 in 35 days,0.5,stim/N000.jpg,65,65,0.516666666,3,2,1,3,3,2,0,2,1,2,2,2,3,3,4,4,4,4,3,4,2,3,5,1,1,4,3,4,0,1,1,0,2,1,0,2,0,0,0,2,0,0,2,0,0,0,0,agree,453,,,,,,,,"<div style=""font-size:60px;"">?</div>",65,16,1,0.5
image-keyboard-response,72,1154576,0.0-21.0-0.16,w75c0glzv3q0dp3,0,20,Female,Female,148,5.4,30/08/2000,Single,French,"English, Spanish",No,No,No,3,3,3,3,4,0:30,0:00,2:00,3:30,0:00,0:45,0:00,1:00,4:00,0:00,1:00,0:15,1:30,4:00,0:00,2:00,4:00,3:00,8,3,6,3,0,0,1,3,3,1,1,1,2,1,1,2,3,3,0,2,3,2,1,1,4,$85 in 14 days,$55 in 25 days,$85 in 35 days,$34 tonight,$35 in 10 days,$55 in 20 days,$83 tonight,$21 tonight,$48 tonight,$40 tonight,$35 in 25 days,$65 tonight,$55 in 10 days,$30 tonight,$53 tonight,$47 tonight,$70 in 20 days,$50 tonight,$70 in 35 days,$27 tonight,$30 in 35 days,0.5,stim/N000.jpg,65,65,0.516666666,3,2,1,3,3,2,0,2,1,2,2,2,3,3,4,4,4,4,3,4,2,3,5,1,1,4,3,4,0,1,1,0,2,1,0,2,0,0,0,2,0,0,2,0,0,0,0,agree,null,,,,,,,,stim/H280.jpg,null,,,
html-keyboard-response,73,1155007,0.0-21.0-1.16,w75c0glzv3q0dp3,0,20,Female,Female,148,5.4,30/08/2000,Single,French,"English, Spanish",No,No,No,3,3,3,3,4,0:30,0:00,2:00,3:30,0:00,0:45,0:00,1:00,4:00,0:00,1:00,0:15,1:30,4:00,0:00,2:00,4:00,3:00,8,3,6,3,0,0,1,3,3,1,1,1,2,1,1,2,3,3,0,2,3,2,1,1,4,$85 in 14 days,$55 in 25 days,$85 in 35 days,$34 tonight,$35 in 10 days,$55 in 20 days,$83 tonight,$21 tonight,$48 tonight,$40 tonight,$35 in 25 days,$65 tonight,$55 in 10 days,$30 tonight,$53 tonight,$47 tonight,$70 in 20 days,$50 tonight,$70 in 35 days,$27 tonight,$30 in 35 days,0.5,stim/N000.jpg,65,65,0.516666666,3,2,1,3,3,2,0,2,1,2,2,2,3,3,4,4,4,4,3,4,2,3,5,1,1,4,3,4,0,1,1,0,2,1,0,2,0,0,0,2,0,0,2,0,0,0,0,agree,429,,,,,,,,"<div style=""font-size:60px;"">?</div>",76,17,1,0.5
image-keyboard-response,74,1156010,0.0-21.0-0.17,w75c0glzv3q0dp3,0,20,Female,Female,148,5.4,30/08/2000,Single,French,"English, Spanish",No,No,No,3,3,3,3,4,0:30,0:00,2:00,3:30,0:00,0:45,0:00,1:00,4:00,0:00,1:00,0:15,1:30,4:00,0:00,2:00,4:00,3:00,8,3,6,3,0,0,1,3,3,1,1,1,2,1,1,2,3,3,0,2,3,2,1,1,4,$85 in 14 days,$55 in 25 days,$85 in 35 days,$34 tonight,$35 in 10 days,$55 in 20 days,$83 tonight,$21 tonight,$48 tonight,$40 tonight,$35 in 25 days,$65 tonight,$55 in 10 days,$30 tonight,$53 tonight,$47 tonight,$70 in 20 days,$50 tonight,$70 in 35 days,$27 tonight,$30 in 35 days,0.5,stim/N000.jpg,65,65,0.516666666,3,2,1,3,3,2,0,2,1,2,2,2,3,3,4,4,4,4,3,4,2,3,5,1,1,4,3,4,0,1,1,0,2,1,0,2,0,0,0,2,0,0,2,0,0,0,0,agree,null,,,,,,,,stim/H090.jpg,null,,,
html-keyboard-response,75,1156500,0.0-21.0-1.17,w75c0glzv3q0dp3,0,20,Female,Female,148,5.4,30/08/2000,Single,French,"English, Spanish",No,No,No,3,3,3,3,4,0:30,0:00,2:00,3:30,0:00,0:45,0:00,1:00,4:00,0:00,1:00,0:15,1:30,4:00,0:00,2:00,4:00,3:00,8,3,6,3,0,0,1,3,3,1,1,1,2,1,1,2,3,3,0,2,3,2,1,1,4,$85 in 14 days,$55 in 25 days,$85 in 35 days,$34 tonight,$35 in 10 days,$55 in 20 days,$83 tonight,$21 tonight,$48 tonight,$40 tonight,$35 in 25 days,$65 tonight,$55 in 10 days,$30 tonight,$53 tonight,$47 tonight,$70 in 20 days,$50 tonight,$70 in 35 days,$27 tonight,$30 in 35 days,0.5,stim/N000.jpg,65,65,0.516666666,3,2,1,3,3,2,0,2,1,2,2,2,3,3,4,4,4,4,3,4,2,3,5,1,1,4,3,4,0,1,1,0,2,1,0,2,0,0,0,2,0,0,2,0,0,0,0,agree,489,,,,,,,,"<div style=""font-size:60px;"">?</div>",65,18,1,0.5
image-keyboard-response,76,1157503,0.0-21.0-0.18,w75c0glzv3q0dp3,0,20,Female,Female,148,5.4,30/08/2000,Single,French,"English, Spanish",No,No,No,3,3,3,3,4,0:30,0:00,2:00,3:30,0:00,0:45,0:00,1:00,4:00,0:00,1:00,0:15,1:30,4:00,0:00,2:00,4:00,3:00,8,3,6,3,0,0,1,3,3,1,1,1,2,1,1,2,3,3,0,2,3,2,1,1,4,$85 in 14 days,$55 in 25 days,$85 in 35 days,$34 tonight,$35 in 10 days,$55 in 20 days,$83 tonight,$21 tonight,$48 tonight,$40 tonight,$35 in 25 days,$65 tonight,$55 in 10 days,$30 tonight,$53 tonight,$47 tonight,$70 in 20 days,$50 tonight,$70 in 35 days,$27 tonight,$30 in 35 days,0.5,stim/N000.jpg,65,65,0.516666666,3,2,1,3,3,2,0,2,1,2,2,2,3,3,4,4,4,4,3,4,2,3,5,1,1,4,3,4,0,1,1,0,2,1,0,2,0,0,0,2,0,0,2,0,0,0,0,agree,null,,,,,,,,stim/T200.jpg,null,,,
html-keyboard-response,77,1158254,0.0-21.0-1.18,w75c0glzv3q0dp3,0,20,Female,Female,148,5.4,30/08/2000,Single,French,"English, Spanish",No,No,No,3,3,3,3,4,0:30,0:00,2:00,3:30,0:00,0:45,0:00,1:00,4:00,0:00,1:00,0:15,1:30,4:00,0:00,2:00,4:00,3:00,8,3,6,3,0,0,1,3,3,1,1,1,2,1,1,2,3,3,0,2,3,2,1,1,4,$85 in 14 days,$55 in 25 days,$85 in 35 days,$34 tonight,$35 in 10 days,$55 in 20 days,$83 tonight,$21 tonight,$48 tonight,$40 tonight,$35 in 25 days,$65 tonight,$55 in 10 days,$30 tonight,$53 tonight,$47 tonight,$70 in 20 days,$50 tonight,$70 in 35 days,$27 tonight,$30 in 35 days,0.5,stim/N000.jpg,65,65,0.516666666,3,2,1,3,3,2,0,2,1,2,2,2,3,3,4,4,4,4,3,4,2,3,5,1,1,4,3,4,0,1,1,0,2,1,0,2,0,0,0,2,0,0,2,0,0,0,0,agree,750,,,,,,,,"<div style=""font-size:60px;"">?</div>",65,19,1,0.5
image-keyboard-response,78,1159257,0.0-21.0-0.19,w75c0glzv3q0dp3,0,20,Female,Female,148,5.4,30/08/2000,Single,French,"English, Spanish",No,No,No,3,3,3,3,4,0:30,0:00,2:00,3:30,0:00,0:45,0:00,1:00,4:00,0:00,1:00,0:15,1:30,4:00,0:00,2:00,4:00,3:00,8,3,6,3,0,0,1,3,3,1,1,1,2,1,1,2,3,3,0,2,3,2,1,1,4,$85 in 14 days,$55 in 25 days,$85 in 35 days,$34 tonight,$35 in 10 days,$55 in 20 days,$83 tonight,$21 tonight,$48 tonight,$40 tonight,$35 in 25 days,$65 tonight,$55 in 10 days,$30 tonight,$53 tonight,$47 tonight,$70 in 20 days,$50 tonight,$70 in 35 days,$27 tonight,$30 in 35 days,0.5,stim/N000.jpg,65,65,0.516666666,3,2,1,3,3,2,0,2,1,2,2,2,3,3,4,4,4,4,3,4,2,3,5,1,1,4,3,4,0,1,1,0,2,1,0,2,0,0,0,2,0,0,2,0,0,0,0,agree,null,,,,,,,,stim/T010.jpg,null,,,
html-keyboard-response,79,1159832,0.0-21.0-1.19,w75c0glzv3q0dp3,0,20,Female,Female,148,5.4,30/08/2000,Single,French,"English, Spanish",No,No,No,3,3,3,3,4,0:30,0:00,2:00,3:30,0:00,0:45,0:00,1:00,4:00,0:00,1:00,0:15,1:30,4:00,0:00,2:00,4:00,3:00,8,3,6,3,0,0,1,3,3,1,1,1,2,1,1,2,3,3,0,2,3,2,1,1,4,$85 in 14 days,$55 in 25 days,$85 in 35 days,$34 tonight,$35 in 10 days,$55 in 20 days,$83 tonight,$21 tonight,$48 tonight,$40 tonight,$35 in 25 days,$65 tonight,$55 in 10 days,$30 tonight,$53 tonight,$47 tonight,$70 in 20 days,$50 tonight,$70 in 35 days,$27 tonight,$30 in 35 days,0.5,stim/N000.jpg,65,65,0.516666666,3,2,1,3,3,2,0,2,1,2,2,2,3,3,4,4,4,4,3,4,2,3,5,1,1,4,3,4,0,1,1,0,2,1,0,2,0,0,0,2,0,0,2,0,0,0,0,agree,574,,,,,,,,"<div style=""font-size:60px;"">?</div>",65,20,1,0.5
image-keyboard-response,80,1160834,0.0-21.0-0.20,w75c0glzv3q0dp3,0,20,Female,Female,148,5.4,30/08/2000,Single,French,"English, Spanish",No,No,No,3,3,3,3,4,0:30,0:00,2:00,3:30,0:00,0:45,0:00,1:00,4:00,0:00,1:00,0:15,1:30,4:00,0:00,2:00,4:00,3:00,8,3,6,3,0,0,1,3,3,1,1,1,2,1,1,2,3,3,0,2,3,2,1,1,4,$85 in 14 days,$55 in 25 days,$85 in 35 days,$34 tonight,$35 in 10 days,$55 in 20 days,$83 tonight,$21 tonight,$48 tonight,$40 tonight,$35 in 25 days,$65 tonight,$55 in 10 days,$30 tonight,$53 tonight,$47 tonight,$70 in 20 days,$50 tonight,$70 in 35 days,$27 tonight,$30 in 35 days,0.5,stim/N000.jpg,65,65,0.516666666,3,2,1,3,3,2,0,2,1,2,2,2,3,3,4,4,4,4,3,4,2,3,5,1,1,4,3,4,0,1,1,0,2,1,0,2,0,0,0,2,0,0,2,0,0,0,0,agree,null,,,,,,,,stim/T150.jpg,null,,,
html-keyboard-response,81,1161534,0.0-21.0-1.20,w75c0glzv3q0dp3,0,20,Female,Female,148,5.4,30/08/2000,Single,French,"English, Spanish",No,No,No,3,3,3,3,4,0:30,0:00,2:00,3:30,0:00,0:45,0:00,1:00,4:00,0:00,1:00,0:15,1:30,4:00,0:00,2:00,4:00,3:00,8,3,6,3,0,0,1,3,3,1,1,1,2,1,1,2,3,3,0,2,3,2,1,1,4,$85 in 14 days,$55 in 25 days,$85 in 35 days,$34 tonight,$35 in 10 days,$55 in 20 days,$83 tonight,$21 tonight,$48 tonight,$40 tonight,$35 in 25 days,$65 tonight,$55 in 10 days,$30 tonight,$53 tonight,$47 tonight,$70 in 20 days,$50 tonight,$70 in 35 days,$27 tonight,$30 in 35 days,0.5,stim/N000.jpg,65,65,0.516666666,3,2,1,3,3,2,0,2,1,2,2,2,3,3,4,4,4,4,3,4,2,3,5,1,1,4,3,4,0,1,1,0,2,1,0,2,0,0,0,2,0,0,2,0,0,0,0,agree,698,,,,,,,,"<div style=""font-size:60px;"">?</div>",65,21,1,0.5
image-keyboard-response,82,1162537,0.0-21.0-0.21,w75c0glzv3q0dp3,0,20,Female,Female,148,5.4,30/08/2000,Single,French,"English, Spanish",No,No,No,3,3,3,3,4,0:30,0:00,2:00,3:30,0:00,0:45,0:00,1:00,4:00,0:00,1:00,0:15,1:30,4:00,0:00,2:00,4:00,3:00,8,3,6,3,0,0,1,3,3,1,1,1,2,1,1,2,3,3,0,2,3,2,1,1,4,$85 in 14 days,$55 in 25 days,$85 in 35 days,$34 tonight,$35 in 10 days,$55 in 20 days,$83 tonight,$21 tonight,$48 tonight,$40 tonight,$35 in 25 days,$65 tonight,$55 in 10 days,$30 tonight,$53 tonight,$47 tonight,$70 in 20 days,$50 tonight,$70 in 35 days,$27 tonight,$30 in 35 days,0.5,stim/N000.jpg,65,65,0.516666666,3,2,1,3,3,2,0,2,1,2,2,2,3,3,4,4,4,4,3,4,2,3,5,1,1,4,3,4,0,1,1,0,2,1,0,2,0,0,0,2,0,0,2,0,0,0,0,agree,null,,,,,,,,stim/T260.jpg,null,,,
html-keyboard-response,83,1163075,0.0-21.0-1.21,w75c0glzv3q0dp3,0,20,Female,Female,148,5.4,30/08/2000,Single,French,"English, Spanish",No,No,No,3,3,3,3,4,0:30,0:00,2:00,3:30,0:00,0:45,0:00,1:00,4:00,0:00,1:00,0:15,1:30,4:00,0:00,2:00,4:00,3:00,8,3,6,3,0,0,1,3,3,1,1,1,2,1,1,2,3,3,0,2,3,2,1,1,4,$85 in 14 days,$55 in 25 days,$85 in 35 days,$34 tonight,$35 in 10 days,$55 in 20 days,$83 tonight,$21 tonight,$48 tonight,$40 tonight,$35 in 25 days,$65 tonight,$55 in 10 days,$30 tonight,$53 tonight,$47 tonight,$70 in 20 days,$50 tonight,$70 in 35 days,$27 tonight,$30 in 35 days,0.5,stim/N000.jpg,65,65,0.516666666,3,2,1,3,3,2,0,2,1,2,2,2,3,3,4,4,4,4,3,4,2,3,5,1,1,4,3,4,0,1,1,0,2,1,0,2,0,0,0,2,0,0,2,0,0,0,0,agree,536,,,,,,,,"<div style=""font-size:60px;"">?</div>",65,22,1,0.5
image-keyboard-response,84,1164078,0.0-21.0-0.22,w75c0glzv3q0dp3,0,20,Female,Female,148,5.4,30/08/2000,Single,French,"English, Spanish",No,No,No,3,3,3,3,4,0:30,0:00,2:00,3:30,0:00,0:45,0:00,1:00,4:00,0:00,1:00,0:15,1:30,4:00,0:00,2:00,4:00,3:00,8,3,6,3,0,0,1,3,3,1,1,1,2,1,1,2,3,3,0,2,3,2,1,1,4,$85 in 14 days,$55 in 25 days,$85 in 35 days,$34 tonight,$35 in 10 days,$55 in 20 days,$83 tonight,$21 tonight,$48 tonight,$40 tonight,$35 in 25 days,$65 tonight,$55 in 10 days,$30 tonight,$53 tonight,$47 tonight,$70 in 20 days,$50 tonight,$70 in 35 days,$27 tonight,$30 in 35 days,0.5,stim/N000.jpg,65,65,0.516666666,3,2,1,3,3,2,0,2,1,2,2,2,3,3,4,4,4,4,3,4,2,3,5,1,1,4,3,4,0,1,1,0,2,1,0,2,0,0,0,2,0,0,2,0,0,0,0,agree,null,,,,,,,,stim/T090.jpg,null,,,
html-keyboard-response,85,1164868,0.0-21.0-1.22,w75c0glzv3q0dp3,0,20,Female,Female,148,5.4,30/08/2000,Single,French,"English, Spanish",No,No,No,3,3,3,3,4,0:30,0:00,2:00,3:30,0:00,0:45,0:00,1:00,4:00,0:00,1:00,0:15,1:30,4:00,0:00,2:00,4:00,3:00,8,3,6,3,0,0,1,3,3,1,1,1,2,1,1,2,3,3,0,2,3,2,1,1,4,$85 in 14 days,$55 in 25 days,$85 in 35 days,$34 tonight,$35 in 10 days,$55 in 20 days,$83 tonight,$21 tonight,$48 tonight,$40 tonight,$35 in 25 days,$65 tonight,$55 in 10 days,$30 tonight,$53 tonight,$47 tonight,$70 in 20 days,$50 tonight,$70 in 35 days,$27 tonight,$30 in 35 days,0.5,stim/N000.jpg,65,65,0.516666666,3,2,1,3,3,2,0,2,1,2,2,2,3,3,4,4,4,4,3,4,2,3,5,1,1,4,3,4,0,1,1,0,2,1,0,2,0,0,0,2,0,0,2,0,0,0,0,agree,789,,,,,,,,"<div style=""font-size:60px;"">?</div>",65,23,1,0.5
image-keyboard-response,86,1165872,0.0-21.0-0.23,w75c0glzv3q0dp3,0,20,Female,Female,148,5.4,30/08/2000,Single,French,"English, Spanish",No,No,No,3,3,3,3,4,0:30,0:00,2:00,3:30,0:00,0:45,0:00,1:00,4:00,0:00,1:00,0:15,1:30,4:00,0:00,2:00,4:00,3:00,8,3,6,3,0,0,1,3,3,1,1,1,2,1,1,2,3,3,0,2,3,2,1,1,4,$85 in 14 days,$55 in 25 days,$85 in 35 days,$34 tonight,$35 in 10 days,$55 in 20 days,$83 tonight,$21 tonight,$48 tonight,$40 tonight,$35 in 25 days,$65 tonight,$55 in 10 days,$30 tonight,$53 tonight,$47 tonight,$70 in 20 days,$50 tonight,$70 in 35 days,$27 tonight,$30 in 35 days,0.5,stim/N000.jpg,65,65,0.516666666,3,2,1,3,3,2,0,2,1,2,2,2,3,3,4,4,4,4,3,4,2,3,5,1,1,4,3,4,0,1,1,0,2,1,0,2,0,0,0,2,0,0,2,0,0,0,0,agree,null,,,,,,,,stim/H250.jpg,null,,,
html-keyboard-response,87,1166139,0.0-21.0-1.23,w75c0glzv3q0dp3,0,20,Female,Female,148,5.4,30/08/2000,Single,French,"English, Spanish",No,No,No,3,3,3,3,4,0:30,0:00,2:00,3:30,0:00,0:45,0:00,1:00,4:00,0:00,1:00,0:15,1:30,4:00,0:00,2:00,4:00,3:00,8,3,6,3,0,0,1,3,3,1,1,1,2,1,1,2,3,3,0,2,3,2,1,1,4,$85 in 14 days,$55 in 25 days,$85 in 35 days,$34 tonight,$35 in 10 days,$55 in 20 days,$83 tonight,$21 tonight,$48 tonight,$40 tonight,$35 in 25 days,$65 tonight,$55 in 10 days,$30 tonight,$53 tonight,$47 tonight,$70 in 20 days,$50 tonight,$70 in 35 days,$27 tonight,$30 in 35 days,0.5,stim/N000.jpg,65,65,0.516666666,3,2,1,3,3,2,0,2,1,2,2,2,3,3,4,4,4,4,3,4,2,3,5,1,1,4,3,4,0,1,1,0,2,1,0,2,0,0,0,2,0,0,2,0,0,0,0,agree,266,,,,,,,,"<div style=""font-size:60px;"">?</div>",76,24,1,0.5
image-keyboard-response,88,1167143,0.0-21.0-0.24,w75c0glzv3q0dp3,0,20,Female,Female,148,5.4,30/08/2000,Single,French,"English, Spanish",No,No,No,3,3,3,3,4,0:30,0:00,2:00,3:30,0:00,0:45,0:00,1:00,4:00,0:00,1:00,0:15,1:30,4:00,0:00,2:00,4:00,3:00,8,3,6,3,0,0,1,3,3,1,1,1,2,1,1,2,3,3,0,2,3,2,1,1,4,$85 in 14 days,$55 in 25 days,$85 in 35 days,$34 tonight,$35 in 10 days,$55 in 20 days,$83 tonight,$21 tonight,$48 tonight,$40 tonight,$35 in 25 days,$65 tonight,$55 in 10 days,$30 tonight,$53 tonight,$47 tonight,$70 in 20 days,$50 tonight,$70 in 35 days,$27 tonight,$30 in 35 days,0.5,stim/N000.jpg,65,65,0.516666666,3,2,1,3,3,2,0,2,1,2,2,2,3,3,4,4,4,4,3,4,2,3,5,1,1,4,3,4,0,1,1,0,2,1,0,2,0,0,0,2,0,0,2,0,0,0,0,agree,null,,,,,,,,stim/T220.jpg,null,,,
html-keyboard-response,89,1167904,0.0-21.0-1.24,w75c0glzv3q0dp3,0,20,Female,Female,148,5.4,30/08/2000,Single,French,"English, Spanish",No,No,No,3,3,3,3,4,0:30,0:00,2:00,3:30,0:00,0:45,0:00,1:00,4:00,0:00,1:00,0:15,1:30,4:00,0:00,2:00,4:00,3:00,8,3,6,3,0,0,1,3,3,1,1,1,2,1,1,2,3,3,0,2,3,2,1,1,4,$85 in 14 days,$55 in 25 days,$85 in 35 days,$34 tonight,$35 in 10 days,$55 in 20 days,$83 tonight,$21 tonight,$48 tonight,$40 tonight,$35 in 25 days,$65 tonight,$55 in 10 days,$30 tonight,$53 tonight,$47 tonight,$70 in 20 days,$50 tonight,$70 in 35 days,$27 tonight,$30 in 35 days,0.5,stim/N000.jpg,65,65,0.516666666,3,2,1,3,3,2,0,2,1,2,2,2,3,3,4,4,4,4,3,4,2,3,5,1,1,4,3,4,0,1,1,0,2,1,0,2,0,0,0,2,0,0,2,0,0,0,0,agree,760,,,,,,,,"<div style=""font-size:60px;"">?</div>",65,25,1,0.5
image-keyboard-response,90,1168908,0.0-21.0-0.25,w75c0glzv3q0dp3,0,20,Female,Female,148,5.4,30/08/2000,Single,French,"English, Spanish",No,No,No,3,3,3,3,4,0:30,0:00,2:00,3:30,0:00,0:45,0:00,1:00,4:00,0:00,1:00,0:15,1:30,4:00,0:00,2:00,4:00,3:00,8,3,6,3,0,0,1,3,3,1,1,1,2,1,1,2,3,3,0,2,3,2,1,1,4,$85 in 14 days,$55 in 25 days,$85 in 35 days,$34 tonight,$35 in 10 days,$55 in 20 days,$83 tonight,$21 tonight,$48 tonight,$40 tonight,$35 in 25 days,$65 tonight,$55 in 10 days,$30 tonight,$53 tonight,$47 tonight,$70 in 20 days,$50 tonight,$70 in 35 days,$27 tonight,$30 in 35 days,0.5,stim/N000.jpg,65,65,0.516666666,3,2,1,3,3,2,0,2,1,2,2,2,3,3,4,4,4,4,3,4,2,3,5,1,1,4,3,4,0,1,1,0,2,1,0,2,0,0,0,2,0,0,2,0,0,0,0,agree,null,,,,,,,,stim/H110.jpg,null,,,
html-keyboard-response,91,1169550,0.0-21.0-1.25,w75c0glzv3q0dp3,0,20,Female,Female,148,5.4,30/08/2000,Single,French,"English, Spanish",No,No,No,3,3,3,3,4,0:30,0:00,2:00,3:30,0:00,0:45,0:00,1:00,4:00,0:00,1:00,0:15,1:30,4:00,0:00,2:00,4:00,3:00,8,3,6,3,0,0,1,3,3,1,1,1,2,1,1,2,3,3,0,2,3,2,1,1,4,$85 in 14 days,$55 in 25 days,$85 in 35 days,$34 tonight,$35 in 10 days,$55 in 20 days,$83 tonight,$21 tonight,$48 tonight,$40 tonight,$35 in 25 days,$65 tonight,$55 in 10 days,$30 tonight,$53 tonight,$47 tonight,$70 in 20 days,$50 tonight,$70 in 35 days,$27 tonight,$30 in 35 days,0.5,stim/N000.jpg,65,65,0.516666666,3,2,1,3,3,2,0,2,1,2,2,2,3,3,4,4,4,4,3,4,2,3,5,1,1,4,3,4,0,1,1,0,2,1,0,2,0,0,0,2,0,0,2,0,0,0,0,agree,641,,,,,,,,"<div style=""font-size:60px;"">?</div>",65,26,1,0.5
image-keyboard-response,92,1170553,0.0-21.0-0.26,w75c0glzv3q0dp3,0,20,Female,Female,148,5.4,30/08/2000,Single,French,"English, Spanish",No,No,No,3,3,3,3,4,0:30,0:00,2:00,3:30,0:00,0:45,0:00,1:00,4:00,0:00,1:00,0:15,1:30,4:00,0:00,2:00,4:00,3:00,8,3,6,3,0,0,1,3,3,1,1,1,2,1,1,2,3,3,0,2,3,2,1,1,4,$85 in 14 days,$55 in 25 days,$85 in 35 days,$34 tonight,$35 in 10 days,$55 in 20 days,$83 tonight,$21 tonight,$48 tonight,$40 tonight,$35 in 25 days,$65 tonight,$55 in 10 days,$30 tonight,$53 tonight,$47 tonight,$70 in 20 days,$50 tonight,$70 in 35 days,$27 tonight,$30 in 35 days,0.5,stim/N000.jpg,65,65,0.516666666,3,2,1,3,3,2,0,2,1,2,2,2,3,3,4,4,4,4,3,4,2,3,5,1,1,4,3,4,0,1,1,0,2,1,0,2,0,0,0,2,0,0,2,0,0,0,0,agree,null,,,,,,,,stim/H070.jpg,null,,,
html-keyboard-response,93,1171101,0.0-21.0-1.26,w75c0glzv3q0dp3,0,20,Female,Female,148,5.4,30/08/2000,Single,French,"English, Spanish",No,No,No,3,3,3,3,4,0:30,0:00,2:00,3:30,0:00,0:45,0:00,1:00,4:00,0:00,1:00,0:15,1:30,4:00,0:00,2:00,4:00,3:00,8,3,6,3,0,0,1,3,3,1,1,1,2,1,1,2,3,3,0,2,3,2,1,1,4,$85 in 14 days,$55 in 25 days,$85 in 35 days,$34 tonight,$35 in 10 days,$55 in 20 days,$83 tonight,$21 tonight,$48 tonight,$40 tonight,$35 in 25 days,$65 tonight,$55 in 10 days,$30 tonight,$53 tonight,$47 tonight,$70 in 20 days,$50 tonight,$70 in 35 days,$27 tonight,$30 in 35 days,0.5,stim/N000.jpg,65,65,0.516666666,3,2,1,3,3,2,0,2,1,2,2,2,3,3,4,4,4,4,3,4,2,3,5,1,1,4,3,4,0,1,1,0,2,1,0,2,0,0,0,2,0,0,2,0,0,0,0,agree,547,,,,,,,,"<div style=""font-size:60px;"">?</div>",65,27,1,0.5
image-keyboard-response,94,1172105,0.0-21.0-0.27,w75c0glzv3q0dp3,0,20,Female,Female,148,5.4,30/08/2000,Single,French,"English, Spanish",No,No,No,3,3,3,3,4,0:30,0:00,2:00,3:30,0:00,0:45,0:00,1:00,4:00,0:00,1:00,0:15,1:30,4:00,0:00,2:00,4:00,3:00,8,3,6,3,0,0,1,3,3,1,1,1,2,1,1,2,3,3,0,2,3,2,1,1,4,$85 in 14 days,$55 in 25 days,$85 in 35 days,$34 tonight,$35 in 10 days,$55 in 20 days,$83 tonight,$21 tonight,$48 tonight,$40 tonight,$35 in 25 days,$65 tonight,$55 in 10 days,$30 tonight,$53 tonight,$47 tonight,$70 in 20 days,$50 tonight,$70 in 35 days,$27 tonight,$30 in 35 days,0.5,stim/N000.jpg,65,65,0.516666666,3,2,1,3,3,2,0,2,1,2,2,2,3,3,4,4,4,4,3,4,2,3,5,1,1,4,3,4,0,1,1,0,2,1,0,2,0,0,0,2,0,0,2,0,0,0,0,agree,null,,,,,,,,stim/H280.jpg,null,,,
html-keyboard-response,95,1172269,0.0-21.0-1.27,w75c0glzv3q0dp3,0,20,Female,Female,148,5.4,30/08/2000,Single,French,"English, Spanish",No,No,No,3,3,3,3,4,0:30,0:00,2:00,3:30,0:00,0:45,0:00,1:00,4:00,0:00,1:00,0:15,1:30,4:00,0:00,2:00,4:00,3:00,8,3,6,3,0,0,1,3,3,1,1,1,2,1,1,2,3,3,0,2,3,2,1,1,4,$85 in 14 days,$55 in 25 days,$85 in 35 days,$34 tonight,$35 in 10 days,$55 in 20 days,$83 tonight,$21 tonight,$48 tonight,$40 tonight,$35 in 25 days,$65 tonight,$55 in 10 days,$30 tonight,$53 tonight,$47 tonight,$70 in 20 days,$50 tonight,$70 in 35 days,$27 tonight,$30 in 35 days,0.5,stim/N000.jpg,65,65,0.516666666,3,2,1,3,3,2,0,2,1,2,2,2,3,3,4,4,4,4,3,4,2,3,5,1,1,4,3,4,0,1,1,0,2,1,0,2,0,0,0,2,0,0,2,0,0,0,0,agree,164,,,,,,,,"<div style=""font-size:60px;"">?</div>",76,28,1,0.5
image-keyboard-response,96,1173272,0.0-21.0-0.28,w75c0glzv3q0dp3,0,20,Female,Female,148,5.4,30/08/2000,Single,French,"English, Spanish",No,No,No,3,3,3,3,4,0:30,0:00,2:00,3:30,0:00,0:45,0:00,1:00,4:00,0:00,1:00,0:15,1:30,4:00,0:00,2:00,4:00,3:00,8,3,6,3,0,0,1,3,3,1,1,1,2,1,1,2,3,3,0,2,3,2,1,1,4,$85 in 14 days,$55 in 25 days,$85 in 35 days,$34 tonight,$35 in 10 days,$55 in 20 days,$83 tonight,$21 tonight,$48 tonight,$40 tonight,$35 in 25 days,$65 tonight,$55 in 10 days,$30 tonight,$53 tonight,$47 tonight,$70 in 20 days,$50 tonight,$70 in 35 days,$27 tonight,$30 in 35 days,0.5,stim/N000.jpg,65,65,0.516666666,3,2,1,3,3,2,0,2,1,2,2,2,3,3,4,4,4,4,3,4,2,3,5,1,1,4,3,4,0,1,1,0,2,1,0,2,0,0,0,2,0,0,2,0,0,0,0,agree,null,,,,,,,,stim/T150.jpg,null,,,
html-keyboard-response,97,1173845,0.0-21.0-1.28,w75c0glzv3q0dp3,0,20,Female,Female,148,5.4,30/08/2000,Single,French,"English, Spanish",No,No,No,3,3,3,3,4,0:30,0:00,2:00,3:30,0:00,0:45,0:00,1:00,4:00,0:00,1:00,0:15,1:30,4:00,0:00,2:00,4:00,3:00,8,3,6,3,0,0,1,3,3,1,1,1,2,1,1,2,3,3,0,2,3,2,1,1,4,$85 in 14 days,$55 in 25 days,$85 in 35 days,$34 tonight,$35 in 10 days,$55 in 20 days,$83 tonight,$21 tonight,$48 tonight,$40 tonight,$35 in 25 days,$65 tonight,$55 in 10 days,$30 tonight,$53 tonight,$47 tonight,$70 in 20 days,$50 tonight,$70 in 35 days,$27 tonight,$30 in 35 days,0.5,stim/N000.jpg,65,65,0.516666666,3,2,1,3,3,2,0,2,1,2,2,2,3,3,4,4,4,4,3,4,2,3,5,1,1,4,3,4,0,1,1,0,2,1,0,2,0,0,0,2,0,0,2,0,0,0,0,agree,572,,,,,,,,"<div style=""font-size:60px;"">?</div>",65,29,1,0.5
image-keyboard-response,98,1174848,0.0-21.0-0.29,w75c0glzv3q0dp3,0,20,Female,Female,148,5.4,30/08/2000,Single,French,"English, Spanish",No,No,No,3,3,3,3,4,0:30,0:00,2:00,3:30,0:00,0:45,0:00,1:00,4:00,0:00,1:00,0:15,1:30,4:00,0:00,2:00,4:00,3:00,8,3,6,3,0,0,1,3,3,1,1,1,2,1,1,2,3,3,0,2,3,2,1,1,4,$85 in 14 days,$55 in 25 days,$85 in 35 days,$34 tonight,$35 in 10 days,$55 in 20 days,$83 tonight,$21 tonight,$48 tonight,$40 tonight,$35 in 25 days,$65 tonight,$55 in 10 days,$30 tonight,$53 tonight,$47 tonight,$70 in 20 days,$50 tonight,$70 in 35 days,$27 tonight,$30 in 35 days,0.5,stim/N000.jpg,65,65,0.516666666,3,2,1,3,3,2,0,2,1,2,2,2,3,3,4,4,4,4,3,4,2,3,5,1,1,4,3,4,0,1,1,0,2,1,0,2,0,0,0,2,0,0,2,0,0,0,0,agree,null,,,,,,,,stim/H090.jpg,null,,,
html-keyboard-response,99,1175612,0.0-21.0-1.29,w75c0glzv3q0dp3,0,20,Female,Female,148,5.4,30/08/2000,Single,French,"English, Spanish",No,No,No,3,3,3,3,4,0:30,0:00,2:00,3:30,0:00,0:45,0:00,1:00,4:00,0:00,1:00,0:15,1:30,4:00,0:00,2:00,4:00,3:00,8,3,6,3,0,0,1,3,3,1,1,1,2,1,1,2,3,3,0,2,3,2,1,1,4,$85 in 14 days,$55 in 25 days,$85 in 35 days,$34 tonight,$35 in 10 days,$55 in 20 days,$83 tonight,$21 tonight,$48 tonight,$40 tonight,$35 in 25 days,$65 tonight,$55 in 10 days,$30 tonight,$53 tonight,$47 tonight,$70 in 20 days,$50 tonight,$70 in 35 days,$27 tonight,$30 in 35 days,0.5,stim/N000.jpg,65,65,0.516666666,3,2,1,3,3,2,0,2,1,2,2,2,3,3,4,4,4,4,3,4,2,3,5,1,1,4,3,4,0,1,1,0,2,1,0,2,0,0,0,2,0,0,2,0,0,0,0,agree,763,,,,,,,,"<div style=""font-size:60px;"">?</div>",65,30,1,0.5
image-keyboard-response,100,1176615,0.0-21.0-0.30,w75c0glzv3q0dp3,0,20,Female,Female,148,5.4,30/08/2000,Single,French,"English, Spanish",No,No,No,3,3,3,3,4,0:30,0:00,2:00,3:30,0:00,0:45,0:00,1:00,4:00,0:00,1:00,0:15,1:30,4:00,0:00,2:00,4:00,3:00,8,3,6,3,0,0,1,3,3,1,1,1,2,1,1,2,3,3,0,2,3,2,1,1,4,$85 in 14 days,$55 in 25 days,$85 in 35 days,$34 tonight,$35 in 10 days,$55 in 20 days,$83 tonight,$21 tonight,$48 tonight,$40 tonight,$35 in 25 days,$65 tonight,$55 in 10 days,$30 tonight,$53 tonight,$47 tonight,$70 in 20 days,$50 tonight,$70 in 35 days,$27 tonight,$30 in 35 days,0.5,stim/N000.jpg,65,65,0.516666666,3,2,1,3,3,2,0,2,1,2,2,2,3,3,4,4,4,4,3,4,2,3,5,1,1,4,3,4,0,1,1,0,2,1,0,2,0,0,0,2,0,0,2,0,0,0,0,agree,null,,,,,,,,stim/H130.jpg,null,,,
html-keyboard-response,101,1177054,0.0-21.0-1.30,w75c0glzv3q0dp3,0,20,Female,Female,148,5.4,30/08/2000,Single,French,"English, Spanish",No,No,No,3,3,3,3,4,0:30,0:00,2:00,3:30,0:00,0:45,0:00,1:00,4:00,0:00,1:00,0:15,1:30,4:00,0:00,2:00,4:00,3:00,8,3,6,3,0,0,1,3,3,1,1,1,2,1,1,2,3,3,0,2,3,2,1,1,4,$85 in 14 days,$55 in 25 days,$85 in 35 days,$34 tonight,$35 in 10 days,$55 in 20 days,$83 tonight,$21 tonight,$48 tonight,$40 tonight,$35 in 25 days,$65 tonight,$55 in 10 days,$30 tonight,$53 tonight,$47 tonight,$70 in 20 days,$50 tonight,$70 in 35 days,$27 tonight,$30 in 35 days,0.5,stim/N000.jpg,65,65,0.516666666,3,2,1,3,3,2,0,2,1,2,2,2,3,3,4,4,4,4,3,4,2,3,5,1,1,4,3,4,0,1,1,0,2,1,0,2,0,0,0,2,0,0,2,0,0,0,0,agree,438,,,,,,,,"<div style=""font-size:60px;"">?</div>",76,31,1,0.5
image-keyboard-response,102,1178057,0.0-21.0-0.31,w75c0glzv3q0dp3,0,20,Female,Female,148,5.4,30/08/2000,Single,French,"English, Spanish",No,No,No,3,3,3,3,4,0:30,0:00,2:00,3:30,0:00,0:45,0:00,1:00,4:00,0:00,1:00,0:15,1:30,4:00,0:00,2:00,4:00,3:00,8,3,6,3,0,0,1,3,3,1,1,1,2,1,1,2,3,3,0,2,3,2,1,1,4,$85 in 14 days,$55 in 25 days,$85 in 35 days,$34 tonight,$35 in 10 days,$55 in 20 days,$83 tonight,$21 tonight,$48 tonight,$40 tonight,$35 in 25 days,$65 tonight,$55 in 10 days,$30 tonight,$53 tonight,$47 tonight,$70 in 20 days,$50 tonight,$70 in 35 days,$27 tonight,$30 in 35 days,0.5,stim/N000.jpg,65,65,0.516666666,3,2,1,3,3,2,0,2,1,2,2,2,3,3,4,4,4,4,3,4,2,3,5,1,1,4,3,4,0,1,1,0,2,1,0,2,0,0,0,2,0,0,2,0,0,0,0,agree,null,,,,,,,,stim/T010.jpg,null,,,
html-keyboard-response,103,1178544,0.0-21.0-1.31,w75c0glzv3q0dp3,0,20,Female,Female,148,5.4,30/08/2000,Single,French,"English, Spanish",No,No,No,3,3,3,3,4,0:30,0:00,2:00,3:30,0:00,0:45,0:00,1:00,4:00,0:00,1:00,0:15,1:30,4:00,0:00,2:00,4:00,3:00,8,3,6,3,0,0,1,3,3,1,1,1,2,1,1,2,3,3,0,2,3,2,1,1,4,$85 in 14 days,$55 in 25 days,$85 in 35 days,$34 tonight,$35 in 10 days,$55 in 20 days,$83 tonight,$21 tonight,$48 tonight,$40 tonight,$35 in 25 days,$65 tonight,$55 in 10 days,$30 tonight,$53 tonight,$47 tonight,$70 in 20 days,$50 tonight,$70 in 35 days,$27 tonight,$30 in 35 days,0.5,stim/N000.jpg,65,65,0.516666666,3,2,1,3,3,2,0,2,1,2,2,2,3,3,4,4,4,4,3,4,2,3,5,1,1,4,3,4,0,1,1,0,2,1,0,2,0,0,0,2,0,0,2,0,0,0,0,agree,485,,,,,,,,"<div style=""font-size:60px;"">?</div>",65,32,1,0.5
image-keyboard-response,104,1179547,0.0-21.0-0.32,w75c0glzv3q0dp3,0,20,Female,Female,148,5.4,30/08/2000,Single,French,"English, Spanish",No,No,No,3,3,3,3,4,0:30,0:00,2:00,3:30,0:00,0:45,0:00,1:00,4:00,0:00,1:00,0:15,1:30,4:00,0:00,2:00,4:00,3:00,8,3,6,3,0,0,1,3,3,1,1,1,2,1,1,2,3,3,0,2,3,2,1,1,4,$85 in 14 days,$55 in 25 days,$85 in 35 days,$34 tonight,$35 in 10 days,$55 in 20 days,$83 tonight,$21 tonight,$48 tonight,$40 tonight,$35 in 25 days,$65 tonight,$55 in 10 days,$30 tonight,$53 tonight,$47 tonight,$70 in 20 days,$50 tonight,$70 in 35 days,$27 tonight,$30 in 35 days,0.5,stim/N000.jpg,65,65,0.516666666,3,2,1,3,3,2,0,2,1,2,2,2,3,3,4,4,4,4,3,4,2,3,5,1,1,4,3,4,0,1,1,0,2,1,0,2,0,0,0,2,0,0,2,0,0,0,0,agree,null,,,,,,,,stim/H050.jpg,null,,,
html-keyboard-response,105,1179987,0.0-21.0-1.32,w75c0glzv3q0dp3,0,20,Female,Female,148,5.4,30/08/2000,Single,French,"English, Spanish",No,No,No,3,3,3,3,4,0:30,0:00,2:00,3:30,0:00,0:45,0:00,1:00,4:00,0:00,1:00,0:15,1:30,4:00,0:00,2:00,4:00,3:00,8,3,6,3,0,0,1,3,3,1,1,1,2,1,1,2,3,3,0,2,3,2,1,1,4,$85 in 14 days,$55 in 25 days,$85 in 35 days,$34 tonight,$35 in 10 days,$55 in 20 days,$83 tonight,$21 tonight,$48 tonight,$40 tonight,$35 in 25 days,$65 tonight,$55 in 10 days,$30 tonight,$53 tonight,$47 tonight,$70 in 20 days,$50 tonight,$70 in 35 days,$27 tonight,$30 in 35 days,0.5,stim/N000.jpg,65,65,0.516666666,3,2,1,3,3,2,0,2,1,2,2,2,3,3,4,4,4,4,3,4,2,3,5,1,1,4,3,4,0,1,1,0,2,1,0,2,0,0,0,2,0,0,2,0,0,0,0,agree,438,,,,,,,,"<div style=""font-size:60px;"">?</div>",65,33,1,0.5
image-keyboard-response,106,1180991,0.0-21.0-0.33,w75c0glzv3q0dp3,0,20,Female,Female,148,5.4,30/08/2000,Single,French,"English, Spanish",No,No,No,3,3,3,3,4,0:30,0:00,2:00,3:30,0:00,0:45,0:00,1:00,4:00,0:00,1:00,0:15,1:30,4:00,0:00,2:00,4:00,3:00,8,3,6,3,0,0,1,3,3,1,1,1,2,1,1,2,3,3,0,2,3,2,1,1,4,$85 in 14 days,$55 in 25 days,$85 in 35 days,$34 tonight,$35 in 10 days,$55 in 20 days,$83 tonight,$21 tonight,$48 tonight,$40 tonight,$35 in 25 days,$65 tonight,$55 in 10 days,$30 tonight,$53 tonight,$47 tonight,$70 in 20 days,$50 tonight,$70 in 35 days,$27 tonight,$30 in 35 days,0.5,stim/N000.jpg,65,65,0.516666666,3,2,1,3,3,2,0,2,1,2,2,2,3,3,4,4,4,4,3,4,2,3,5,1,1,4,3,4,0,1,1,0,2,1,0,2,0,0,0,2,0,0,2,0,0,0,0,agree,null,,,,,,,,stim/T190.jpg,null,,,
html-keyboard-response,107,1181400,0.0-21.0-1.33,w75c0glzv3q0dp3,0,20,Female,Female,148,5.4,30/08/2000,Single,French,"English, Spanish",No,No,No,3,3,3,3,4,0:30,0:00,2:00,3:30,0:00,0:45,0:00,1:00,4:00,0:00,1:00,0:15,1:30,4:00,0:00,2:00,4:00,3:00,8,3,6,3,0,0,1,3,3,1,1,1,2,1,1,2,3,3,0,2,3,2,1,1,4,$85 in 14 days,$55 in 25 days,$85 in 35 days,$34 tonight,$35 in 10 days,$55 in 20 days,$83 tonight,$21 tonight,$48 tonight,$40 tonight,$35 in 25 days,$65 tonight,$55 in 10 days,$30 tonight,$53 tonight,$47 tonight,$70 in 20 days,$50 tonight,$70 in 35 days,$27 tonight,$30 in 35 days,0.5,stim/N000.jpg,65,65,0.516666666,3,2,1,3,3,2,0,2,1,2,2,2,3,3,4,4,4,4,3,4,2,3,5,1,1,4,3,4,0,1,1,0,2,1,0,2,0,0,0,2,0,0,2,0,0,0,0,agree,408,,,,,,,,"<div style=""font-size:60px;"">?</div>",65,34,1,0.5
image-keyboard-response,108,1182403,0.0-21.0-0.34,w75c0glzv3q0dp3,0,20,Female,Female,148,5.4,30/08/2000,Single,French,"English, Spanish",No,No,No,3,3,3,3,4,0:30,0:00,2:00,3:30,0:00,0:45,0:00,1:00,4:00,0:00,1:00,0:15,1:30,4:00,0:00,2:00,4:00,3:00,8,3,6,3,0,0,1,3,3,1,1,1,2,1,1,2,3,3,0,2,3,2,1,1,4,$85 in 14 days,$55 in 25 days,$85 in 35 days,$34 tonight,$35 in 10 days,$55 in 20 days,$83 tonight,$21 tonight,$48 tonight,$40 tonight,$35 in 25 days,$65 tonight,$55 in 10 days,$30 tonight,$53 tonight,$47 tonight,$70 in 20 days,$50 tonight,$70 in 35 days,$27 tonight,$30 in 35 days,0.5,stim/N000.jpg,65,65,0.516666666,3,2,1,3,3,2,0,2,1,2,2,2,3,3,4,4,4,4,3,4,2,3,5,1,1,4,3,4,0,1,1,0,2,1,0,2,0,0,0,2,0,0,2,0,0,0,0,agree,null,,,,,,,,stim/T060.jpg,null,,,
html-keyboard-response,109,1182913,0.0-21.0-1.34,w75c0glzv3q0dp3,0,20,Female,Female,148,5.4,30/08/2000,Single,French,"English, Spanish",No,No,No,3,3,3,3,4,0:30,0:00,2:00,3:30,0:00,0:45,0:00,1:00,4:00,0:00,1:00,0:15,1:30,4:00,0:00,2:00,4:00,3:00,8,3,6,3,0,0,1,3,3,1,1,1,2,1,1,2,3,3,0,2,3,2,1,1,4,$85 in 14 days,$55 in 25 days,$85 in 35 days,$34 tonight,$35 in 10 days,$55 in 20 days,$83 tonight,$21 tonight,$48 tonight,$40 tonight,$35 in 25 days,$65 tonight,$55 in 10 days,$30 tonight,$53 tonight,$47 tonight,$70 in 20 days,$50 tonight,$70 in 35 days,$27 tonight,$30 in 35 days,0.5,stim/N000.jpg,65,65,0.516666666,3,2,1,3,3,2,0,2,1,2,2,2,3,3,4,4,4,4,3,4,2,3,5,1,1,4,3,4,0,1,1,0,2,1,0,2,0,0,0,2,0,0,2,0,0,0,0,agree,508,,,,,,,,"<div style=""font-size:60px;"">?</div>",65,35,1,0.5
image-keyboard-response,110,1183916,0.0-21.0-0.35,w75c0glzv3q0dp3,0,20,Female,Female,148,5.4,30/08/2000,Single,French,"English, Spanish",No,No,No,3,3,3,3,4,0:30,0:00,2:00,3:30,0:00,0:45,0:00,1:00,4:00,0:00,1:00,0:15,1:30,4:00,0:00,2:00,4:00,3:00,8,3,6,3,0,0,1,3,3,1,1,1,2,1,1,2,3,3,0,2,3,2,1,1,4,$85 in 14 days,$55 in 25 days,$85 in 35 days,$34 tonight,$35 in 10 days,$55 in 20 days,$83 tonight,$21 tonight,$48 tonight,$40 tonight,$35 in 25 days,$65 tonight,$55 in 10 days,$30 tonight,$53 tonight,$47 tonight,$70 in 20 days,$50 tonight,$70 in 35 days,$27 tonight,$30 in 35 days,0.5,stim/N000.jpg,65,65,0.516666666,3,2,1,3,3,2,0,2,1,2,2,2,3,3,4,4,4,4,3,4,2,3,5,1,1,4,3,4,0,1,1,0,2,1,0,2,0,0,0,2,0,0,2,0,0,0,0,agree,null,,,,,,,,stim/H180.jpg,null,,,
html-keyboard-response,111,1184175,0.0-21.0-1.35,w75c0glzv3q0dp3,0,20,Female,Female,148,5.4,30/08/2000,Single,French,"English, Spanish",No,No,No,3,3,3,3,4,0:30,0:00,2:00,3:30,0:00,0:45,0:00,1:00,4:00,0:00,1:00,0:15,1:30,4:00,0:00,2:00,4:00,3:00,8,3,6,3,0,0,1,3,3,1,1,1,2,1,1,2,3,3,0,2,3,2,1,1,4,$85 in 14 days,$55 in 25 days,$85 in 35 days,$34 tonight,$35 in 10 days,$55 in 20 days,$83 tonight,$21 tonight,$48 tonight,$40 tonight,$35 in 25 days,$65 tonight,$55 in 10 days,$30 tonight,$53 tonight,$47 tonight,$70 in 20 days,$50 tonight,$70 in 35 days,$27 tonight,$30 in 35 days,0.5,stim/N000.jpg,65,65,0.516666666,3,2,1,3,3,2,0,2,1,2,2,2,3,3,4,4,4,4,3,4,2,3,5,1,1,4,3,4,0,1,1,0,2,1,0,2,0,0,0,2,0,0,2,0,0,0,0,agree,257,,,,,,,,"<div style=""font-size:60px;"">?</div>",76,36,1,0.5
image-keyboard-response,112,1185178,0.0-21.0-0.36,w75c0glzv3q0dp3,0,20,Female,Female,148,5.4,30/08/2000,Single,French,"English, Spanish",No,No,No,3,3,3,3,4,0:30,0:00,2:00,3:30,0:00,0:45,0:00,1:00,4:00,0:00,1:00,0:15,1:30,4:00,0:00,2:00,4:00,3:00,8,3,6,3,0,0,1,3,3,1,1,1,2,1,1,2,3,3,0,2,3,2,1,1,4,$85 in 14 days,$55 in 25 days,$85 in 35 days,$34 tonight,$35 in 10 days,$55 in 20 days,$83 tonight,$21 tonight,$48 tonight,$40 tonight,$35 in 25 days,$65 tonight,$55 in 10 days,$30 tonight,$53 tonight,$47 tonight,$70 in 20 days,$50 tonight,$70 in 35 days,$27 tonight,$30 in 35 days,0.5,stim/N000.jpg,65,65,0.516666666,3,2,1,3,3,2,0,2,1,2,2,2,3,3,4,4,4,4,3,4,2,3,5,1,1,4,3,4,0,1,1,0,2,1,0,2,0,0,0,2,0,0,2,0,0,0,0,agree,null,,,,,,,,stim/T050.jpg,null,,,
html-keyboard-response,113,1185773,0.0-21.0-1.36,w75c0glzv3q0dp3,0,20,Female,Female,148,5.4,30/08/2000,Single,French,"English, Spanish",No,No,No,3,3,3,3,4,0:30,0:00,2:00,3:30,0:00,0:45,0:00,1:00,4:00,0:00,1:00,0:15,1:30,4:00,0:00,2:00,4:00,3:00,8,3,6,3,0,0,1,3,3,1,1,1,2,1,1,2,3,3,0,2,3,2,1,1,4,$85 in 14 days,$55 in 25 days,$85 in 35 days,$34 tonight,$35 in 10 days,$55 in 20 days,$83 tonight,$21 tonight,$48 tonight,$40 tonight,$35 in 25 days,$65 tonight,$55 in 10 days,$30 tonight,$53 tonight,$47 tonight,$70 in 20 days,$50 tonight,$70 in 35 days,$27 tonight,$30 in 35 days,0.5,stim/N000.jpg,65,65,0.516666666,3,2,1,3,3,2,0,2,1,2,2,2,3,3,4,4,4,4,3,4,2,3,5,1,1,4,3,4,0,1,1,0,2,1,0,2,0,0,0,2,0,0,2,0,0,0,0,agree,594,,,,,,,,"<div style=""font-size:60px;"">?</div>",65,37,1,0.5
image-keyboard-response,114,1186776,0.0-21.0-0.37,w75c0glzv3q0dp3,0,20,Female,Female,148,5.4,30/08/2000,Single,French,"English, Spanish",No,No,No,3,3,3,3,4,0:30,0:00,2:00,3:30,0:00,0:45,0:00,1:00,4:00,0:00,1:00,0:15,1:30,4:00,0:00,2:00,4:00,3:00,8,3,6,3,0,0,1,3,3,1,1,1,2,1,1,2,3,3,0,2,3,2,1,1,4,$85 in 14 days,$55 in 25 days,$85 in 35 days,$34 tonight,$35 in 10 days,$55 in 20 days,$83 tonight,$21 tonight,$48 tonight,$40 tonight,$35 in 25 days,$65 tonight,$55 in 10 days,$30 tonight,$53 tonight,$47 tonight,$70 in 20 days,$50 tonight,$70 in 35 days,$27 tonight,$30 in 35 days,0.5,stim/N000.jpg,65,65,0.516666666,3,2,1,3,3,2,0,2,1,2,2,2,3,3,4,4,4,4,3,4,2,3,5,1,1,4,3,4,0,1,1,0,2,1,0,2,0,0,0,2,0,0,2,0,0,0,0,agree,null,,,,,,,,stim/H190.jpg,null,,,
html-keyboard-response,115,1187195,0.0-21.0-1.37,w75c0glzv3q0dp3,0,20,Female,Female,148,5.4,30/08/2000,Single,French,"English, Spanish",No,No,No,3,3,3,3,4,0:30,0:00,2:00,3:30,0:00,0:45,0:00,1:00,4:00,0:00,1:00,0:15,1:30,4:00,0:00,2:00,4:00,3:00,8,3,6,3,0,0,1,3,3,1,1,1,2,1,1,2,3,3,0,2,3,2,1,1,4,$85 in 14 days,$55 in 25 days,$85 in 35 days,$34 tonight,$35 in 10 days,$55 in 20 days,$83 tonight,$21 tonight,$48 tonight,$40 tonight,$35 in 25 days,$65 tonight,$55 in 10 days,$30 tonight,$53 tonight,$47 tonight,$70 in 20 days,$50 tonight,$70 in 35 days,$27 tonight,$30 in 35 days,0.5,stim/N000.jpg,65,65,0.516666666,3,2,1,3,3,2,0,2,1,2,2,2,3,3,4,4,4,4,3,4,2,3,5,1,1,4,3,4,0,1,1,0,2,1,0,2,0,0,0,2,0,0,2,0,0,0,0,agree,418,,,,,,,,"<div style=""font-size:60px;"">?</div>",76,38,1,0.5
image-keyboard-response,116,1188198,0.0-21.0-0.38,w75c0glzv3q0dp3,0,20,Female,Female,148,5.4,30/08/2000,Single,French,"English, Spanish",No,No,No,3,3,3,3,4,0:30,0:00,2:00,3:30,0:00,0:45,0:00,1:00,4:00,0:00,1:00,0:15,1:30,4:00,0:00,2:00,4:00,3:00,8,3,6,3,0,0,1,3,3,1,1,1,2,1,1,2,3,3,0,2,3,2,1,1,4,$85 in 14 days,$55 in 25 days,$85 in 35 days,$34 tonight,$35 in 10 days,$55 in 20 days,$83 tonight,$21 tonight,$48 tonight,$40 tonight,$35 in 25 days,$65 tonight,$55 in 10 days,$30 tonight,$53 tonight,$47 tonight,$70 in 20 days,$50 tonight,$70 in 35 days,$27 tonight,$30 in 35 days,0.5,stim/N000.jpg,65,65,0.516666666,3,2,1,3,3,2,0,2,1,2,2,2,3,3,4,4,4,4,3,4,2,3,5,1,1,4,3,4,0,1,1,0,2,1,0,2,0,0,0,2,0,0,2,0,0,0,0,agree,null,,,,,,,,stim/T150.jpg,null,,,
html-keyboard-response,117,1188543,0.0-21.0-1.38,w75c0glzv3q0dp3,0,20,Female,Female,148,5.4,30/08/2000,Single,French,"English, Spanish",No,No,No,3,3,3,3,4,0:30,0:00,2:00,3:30,0:00,0:45,0:00,1:00,4:00,0:00,1:00,0:15,1:30,4:00,0:00,2:00,4:00,3:00,8,3,6,3,0,0,1,3,3,1,1,1,2,1,1,2,3,3,0,2,3,2,1,1,4,$85 in 14 days,$55 in 25 days,$85 in 35 days,$34 tonight,$35 in 10 days,$55 in 20 days,$83 tonight,$21 tonight,$48 tonight,$40 tonight,$35 in 25 days,$65 tonight,$55 in 10 days,$30 tonight,$53 tonight,$47 tonight,$70 in 20 days,$50 tonight,$70 in 35 days,$27 tonight,$30 in 35 days,0.5,stim/N000.jpg,65,65,0.516666666,3,2,1,3,3,2,0,2,1,2,2,2,3,3,4,4,4,4,3,4,2,3,5,1,1,4,3,4,0,1,1,0,2,1,0,2,0,0,0,2,0,0,2,0,0,0,0,agree,344,,,,,,,,"<div style=""font-size:60px;"">?</div>",65,39,1,0.5
image-keyboard-response,118,1189546,0.0-21.0-0.39,w75c0glzv3q0dp3,0,20,Female,Female,148,5.4,30/08/2000,Single,French,"English, Spanish",No,No,No,3,3,3,3,4,0:30,0:00,2:00,3:30,0:00,0:45,0:00,1:00,4:00,0:00,1:00,0:15,1:30,4:00,0:00,2:00,4:00,3:00,8,3,6,3,0,0,1,3,3,1,1,1,2,1,1,2,3,3,0,2,3,2,1,1,4,$85 in 14 days,$55 in 25 days,$85 in 35 days,$34 tonight,$35 in 10 days,$55 in 20 days,$83 tonight,$21 tonight,$48 tonight,$40 tonight,$35 in 25 days,$65 tonight,$55 in 10 days,$30 tonight,$53 tonight,$47 tonight,$70 in 20 days,$50 tonight,$70 in 35 days,$27 tonight,$30 in 35 days,0.5,stim/N000.jpg,65,65,0.516666666,3,2,1,3,3,2,0,2,1,2,2,2,3,3,4,4,4,4,3,4,2,3,5,1,1,4,3,4,0,1,1,0,2,1,0,2,0,0,0,2,0,0,2,0,0,0,0,agree,null,,,,,,,,stim/H190.jpg,null,,,
html-keyboard-response,119,1189803,0.0-21.0-1.39,w75c0glzv3q0dp3,0,20,Female,Female,148,5.4,30/08/2000,Single,French,"English, Spanish",No,No,No,3,3,3,3,4,0:30,0:00,2:00,3:30,0:00,0:45,0:00,1:00,4:00,0:00,1:00,0:15,1:30,4:00,0:00,2:00,4:00,3:00,8,3,6,3,0,0,1,3,3,1,1,1,2,1,1,2,3,3,0,2,3,2,1,1,4,$85 in 14 days,$55 in 25 days,$85 in 35 days,$34 tonight,$35 in 10 days,$55 in 20 days,$83 tonight,$21 tonight,$48 tonight,$40 tonight,$35 in 25 days,$65 tonight,$55 in 10 days,$30 tonight,$53 tonight,$47 tonight,$70 in 20 days,$50 tonight,$70 in 35 days,$27 tonight,$30 in 35 days,0.5,stim/N000.jpg,65,65,0.516666666,3,2,1,3,3,2,0,2,1,2,2,2,3,3,4,4,4,4,3,4,2,3,5,1,1,4,3,4,0,1,1,0,2,1,0,2,0,0,0,2,0,0,2,0,0,0,0,agree,256,,,,,,,,"<div style=""font-size:60px;"">?</div>",76,40,1,0.5
image-keyboard-response,120,1190806,0.0-21.0-0.40,w75c0glzv3q0dp3,0,20,Female,Female,148,5.4,30/08/2000,Single,French,"English, Spanish",No,No,No,3,3,3,3,4,0:30,0:00,2:00,3:30,0:00,0:45,0:00,1:00,4:00,0:00,1:00,0:15,1:30,4:00,0:00,2:00,4:00,3:00,8,3,6,3,0,0,1,3,3,1,1,1,2,1,1,2,3,3,0,2,3,2,1,1,4,$85 in 14 days,$55 in 25 days,$85 in 35 days,$34 tonight,$35 in 10 days,$55 in 20 days,$83 tonight,$21 tonight,$48 tonight,$40 tonight,$35 in 25 days,$65 tonight,$55 in 10 days,$30 tonight,$53 tonight,$47 tonight,$70 in 20 days,$50 tonight,$70 in 35 days,$27 tonight,$30 in 35 days,0.5,stim/N000.jpg,65,65,0.516666666,3,2,1,3,3,2,0,2,1,2,2,2,3,3,4,4,4,4,3,4,2,3,5,1,1,4,3,4,0,1,1,0,2,1,0,2,0,0,0,2,0,0,2,0,0,0,0,agree,null,,,,,,,,stim/H270.jpg,null,,,
html-keyboard-response,121,1191187,0.0-21.0-1.40,w75c0glzv3q0dp3,0,20,Female,Female,148,5.4,30/08/2000,Single,French,"English, Spanish",No,No,No,3,3,3,3,4,0:30,0:00,2:00,3:30,0:00,0:45,0:00,1:00,4:00,0:00,1:00,0:15,1:30,4:00,0:00,2:00,4:00,3:00,8,3,6,3,0,0,1,3,3,1,1,1,2,1,1,2,3,3,0,2,3,2,1,1,4,$85 in 14 days,$55 in 25 days,$85 in 35 days,$34 tonight,$35 in 10 days,$55 in 20 days,$83 tonight,$21 tonight,$48 tonight,$40 tonight,$35 in 25 days,$65 tonight,$55 in 10 days,$30 tonight,$53 tonight,$47 tonight,$70 in 20 days,$50 tonight,$70 in 35 days,$27 tonight,$30 in 35 days,0.5,stim/N000.jpg,65,65,0.516666666,3,2,1,3,3,2,0,2,1,2,2,2,3,3,4,4,4,4,3,4,2,3,5,1,1,4,3,4,0,1,1,0,2,1,0,2,0,0,0,2,0,0,2,0,0,0,0,agree,380,,,,,,,,"<div style=""font-size:60px;"">?</div>",76,41,1,0.5
image-keyboard-response,122,1192189,0.0-21.0-0.41,w75c0glzv3q0dp3,0,20,Female,Female,148,5.4,30/08/2000,Single,French,"English, Spanish",No,No,No,3,3,3,3,4,0:30,0:00,2:00,3:30,0:00,0:45,0:00,1:00,4:00,0:00,1:00,0:15,1:30,4:00,0:00,2:00,4:00,3:00,8,3,6,3,0,0,1,3,3,1,1,1,2,1,1,2,3,3,0,2,3,2,1,1,4,$85 in 14 days,$55 in 25 days,$85 in 35 days,$34 tonight,$35 in 10 days,$55 in 20 days,$83 tonight,$21 tonight,$48 tonight,$40 tonight,$35 in 25 days,$65 tonight,$55 in 10 days,$30 tonight,$53 tonight,$47 tonight,$70 in 20 days,$50 tonight,$70 in 35 days,$27 tonight,$30 in 35 days,0.5,stim/N000.jpg,65,65,0.516666666,3,2,1,3,3,2,0,2,1,2,2,2,3,3,4,4,4,4,3,4,2,3,5,1,1,4,3,4,0,1,1,0,2,1,0,2,0,0,0,2,0,0,2,0,0,0,0,agree,null,,,,,,,,stim/T060.jpg,null,,,
html-keyboard-response,123,1192394,0.0-21.0-1.41,w75c0glzv3q0dp3,0,20,Female,Female,148,5.4,30/08/2000,Single,French,"English, Spanish",No,No,No,3,3,3,3,4,0:30,0:00,2:00,3:30,0:00,0:45,0:00,1:00,4:00,0:00,1:00,0:15,1:30,4:00,0:00,2:00,4:00,3:00,8,3,6,3,0,0,1,3,3,1,1,1,2,1,1,2,3,3,0,2,3,2,1,1,4,$85 in 14 days,$55 in 25 days,$85 in 35 days,$34 tonight,$35 in 10 days,$55 in 20 days,$83 tonight,$21 tonight,$48 tonight,$40 tonight,$35 in 25 days,$65 tonight,$55 in 10 days,$30 tonight,$53 tonight,$47 tonight,$70 in 20 days,$50 tonight,$70 in 35 days,$27 tonight,$30 in 35 days,0.5,stim/N000.jpg,65,65,0.516666666,3,2,1,3,3,2,0,2,1,2,2,2,3,3,4,4,4,4,3,4,2,3,5,1,1,4,3,4,0,1,1,0,2,1,0,2,0,0,0,2,0,0,2,0,0,0,0,agree,204,,,,,,,,"<div style=""font-size:60px;"">?</div>",65,42,1,0.5
image-keyboard-response,124,1193397,0.0-21.0-0.42,w75c0glzv3q0dp3,0,20,Female,Female,148,5.4,30/08/2000,Single,French,"English, Spanish",No,No,No,3,3,3,3,4,0:30,0:00,2:00,3:30,0:00,0:45,0:00,1:00,4:00,0:00,1:00,0:15,1:30,4:00,0:00,2:00,4:00,3:00,8,3,6,3,0,0,1,3,3,1,1,1,2,1,1,2,3,3,0,2,3,2,1,1,4,$85 in 14 days,$55 in 25 days,$85 in 35 days,$34 tonight,$35 in 10 days,$55 in 20 days,$83 tonight,$21 tonight,$48 tonight,$40 tonight,$35 in 25 days,$65 tonight,$55 in 10 days,$30 tonight,$53 tonight,$47 tonight,$70 in 20 days,$50 tonight,$70 in 35 days,$27 tonight,$30 in 35 days,0.5,stim/N000.jpg,65,65,0.516666666,3,2,1,3,3,2,0,2,1,2,2,2,3,3,4,4,4,4,3,4,2,3,5,1,1,4,3,4,0,1,1,0,2,1,0,2,0,0,0,2,0,0,2,0,0,0,0,agree,null,,,,,,,,stim/T230.jpg,null,,,
html-keyboard-response,125,1193696,0.0-21.0-1.42,w75c0glzv3q0dp3,0,20,Female,Female,148,5.4,30/08/2000,Single,French,"English, Spanish",No,No,No,3,3,3,3,4,0:30,0:00,2:00,3:30,0:00,0:45,0:00,1:00,4:00,0:00,1:00,0:15,1:30,4:00,0:00,2:00,4:00,3:00,8,3,6,3,0,0,1,3,3,1,1,1,2,1,1,2,3,3,0,2,3,2,1,1,4,$85 in 14 days,$55 in 25 days,$85 in 35 days,$34 tonight,$35 in 10 days,$55 in 20 days,$83 tonight,$21 tonight,$48 tonight,$40 tonight,$35 in 25 days,$65 tonight,$55 in 10 days,$30 tonight,$53 tonight,$47 tonight,$70 in 20 days,$50 tonight,$70 in 35 days,$27 tonight,$30 in 35 days,0.5,stim/N000.jpg,65,65,0.516666666,3,2,1,3,3,2,0,2,1,2,2,2,3,3,4,4,4,4,3,4,2,3,5,1,1,4,3,4,0,1,1,0,2,1,0,2,0,0,0,2,0,0,2,0,0,0,0,agree,299,,,,,,,,"<div style=""font-size:60px;"">?</div>",65,43,1,0.5
image-keyboard-response,126,1194700,0.0-21.0-0.43,w75c0glzv3q0dp3,0,20,Female,Female,148,5.4,30/08/2000,Single,French,"English, Spanish",No,No,No,3,3,3,3,4,0:30,0:00,2:00,3:30,0:00,0:45,0:00,1:00,4:00,0:00,1:00,0:15,1:30,4:00,0:00,2:00,4:00,3:00,8,3,6,3,0,0,1,3,3,1,1,1,2,1,1,2,3,3,0,2,3,2,1,1,4,$85 in 14 days,$55 in 25 days,$85 in 35 days,$34 tonight,$35 in 10 days,$55 in 20 days,$83 tonight,$21 tonight,$48 tonight,$40 tonight,$35 in 25 days,$65 tonight,$55 in 10 days,$30 tonight,$53 tonight,$47 tonight,$70 in 20 days,$50 tonight,$70 in 35 days,$27 tonight,$30 in 35 days,0.5,stim/N000.jpg,65,65,0.516666666,3,2,1,3,3,2,0,2,1,2,2,2,3,3,4,4,4,4,3,4,2,3,5,1,1,4,3,4,0,1,1,0,2,1,0,2,0,0,0,2,0,0,2,0,0,0,0,agree,null,,,,,,,,stim/T190.jpg,null,,,
